timestamp,north_vel,east_vel,down_vel,north_vel_dev,east_vel_dev,down_vel_dev,lat,long,alt,undulation,lat_dev,long_dev,alt_dev,accel_x,accel_y,accel_z,gyro_x,gyro_y,gyro_z,temp,delta_vel_x,delta_vel_y,delta_vel_z,delta_angle_x,delta_angle_y,delta_angle_z,mag_x,mag_y,mag_z,accel_x.1,accel_y.1,accel_z.1,roll,pitch,yaw,roll_dev,pitch_dev,yaw_dev,w_quat,x_quat,y_quat,z_quat,roll_dev.1,pitch_dev.1,yaw_dev.1,heave_period,surge_motion,sway_motion,heave_motion,surge_accel,sway_accel,heave_accel,surge_vel,sway_vel,heave_vel,wave_angle
2023-09-08 15:34:43.440,-0.033245,0.02682,-0.008038,0.089681,0.089693,0.070766,48.35925,-4.5573,48.464547,50.787003,0.585635,0.584816,0.573469,-0.081735,-0.0117,-9.801594,0.016999,-0.004044,0.018488,33.722176,-0.081142,-0.011199,-9.800142,0.017248,-0.004014,0.018476,-0.288901,-0.335772,0.796051,-0.086672,-0.009901,-9.794906,0.0201681143886049,359.5296016501976,130.73000394583502,0.001428,0.001428,0.011719,-0.416832,-0.003805,0.001551,-0.908974,0.001428,0.001428,0.011719,2.24003,0.0,0.0,-0.001237,0.0,0.0,0.003443,0.0,0.0,0.0,-8.421131891957458
2023-09-08 15:34:43.465,-0.0328237510784,0.0266968753152,-0.0073580017408,0.0900116241535999,0.0900236241535999,0.070934749568,48.35925,-4.5573,48.4647244995456,50.787003,0.5867424971648,0.5859197471744,0.5743521227392,-0.0847081173888,-0.0121868737536,-9.7999090043136,0.0184996211584,-0.004990872576,0.0180886260224,33.7217653760512,-0.084507616384,-0.0124633717632,-9.799670126208,0.0186554963968,-0.0051721220352,0.0179772512768,-0.288901,-0.335772,0.796051,-0.086672,-0.009901,-9.794906,0.0465599152636352,359.522368076552,130.75628831739849,0.0014298749952,0.0014292499968,0.011719,-0.4166220005375999,-0.0039587496064,0.0013672504704,-0.9090696247552,0.0014298749952,0.0014292499968,0.011719,2.24003,0.0,0.0,-0.001237,0.0,0.0,0.003443,0.0,0.0,0.0,-8.394847520393995
2023-09-08 15:34:43.480,-0.032571,0.026623,-0.00695,0.09021,0.090222,0.071036,48.35925,-4.5573,48.464831,50.787003,0.587407,0.586582,0.574882,-0.086492,-0.012479,-9.798898,0.0194,-0.005559,0.017849,33.721519,-0.086527,-0.013222,-9.799387,0.0195,-0.005867,0.017678,-0.2982475398784,-0.3353752483072,0.8013981478144,-0.0839449883648,-0.0080023668992,-9.798048513408,0.0623951038897466,359.5180279027359,130.77205904799763,0.001431,0.00143,0.011719,-0.416496,-0.004051,0.001257,-0.909127,0.001431,0.00143,0.011719,2.24003,0.0,0.0,-0.001237,0.0,0.0,0.003443,0.0,0.0,0.0,-8.379076789794851
2023-09-08 15:34:43.505,-0.0329238115968,0.0263716725184,-0.006677344448,0.090369765216,0.0903816870912,0.0711202185344,48.35925,-4.5573,48.46478803136,50.787003,0.5882688727936,0.5874402790528,0.5756134825024,-0.0831801334784,-0.011804001728,-9.7981536269056,0.0201056231936,-0.0062727481728,0.0177627502208,33.721137750976,-0.0835351326592,-0.0118407535359999,-9.7986095019904,0.0200556235776,-0.0063438737791999,0.0178442495744,-0.313825,-0.334714,0.81031,-0.0794,-0.004838,-9.803286,0.0900760565035843,359.50964841643366,130.7970900775928,0.0014328749951999,0.0014318749952,0.0117183750016,-0.4162966255104,-0.0042178745728,0.0010670004864,-0.9092182497664,0.0014328749951999,0.0014318749952,0.0117183750016,2.24003,0.0,0.0,-0.001237,0.0,0.0,0.003443,0.0,0.0,0.0,-8.354045760199682
2023-09-08 15:34:43.520,-0.0331355,0.026220875,-0.00651375,0.090465625,0.0904775,0.07117075,48.35925,-4.5573,48.46476225,50.787003,0.588786,0.58795525,0.576052375,-0.081193,-0.011399,-9.797707,0.020529,-0.006701,0.017711,33.720909,-0.08174,-0.011012,-9.798143,0.020389,-0.00663,0.017944,-0.3127835134134857,-0.3350972516352,0.8106537157522286,-0.0792227313865142,-0.0054751812900571,-9.803882466830627,0.1066847414533592,359.5046206903299,130.81210879787727,0.001434,0.001433,0.011718,-0.416177,-0.004318,0.000953,-0.909273,0.001434,0.001433,0.011718,2.24003,0.0,0.0,-0.001237,0.0,0.0,0.003443,0.0,0.0,0.0,-8.339027039915209
2023-09-08 15:34:43.785,-0.0368753115968,0.0235567975184,-0.003623594448,0.092159140216,0.0921701870912,0.0720634685344,48.35925,-4.5573,48.46430678136,50.787003,0.5979218727936001,0.5970530290528,0.5838061075024,-0.0771082152722285,-0.0124495354605714,-9.80607153369417,-0.0057627793645714,-0.0011918406162285,0.0167797145106285,33.72195291046217,-0.0777773045284571,-0.0122906246912,-9.8075239977344,-0.0060172971940571,-0.0011075906194285,0.0166483395986285,-0.294384,-0.341868,0.816726,-0.076091,-0.016732,-9.81442,0.2029365120950219,359.4490386819312,131.0764622524565,0.0014415714267428,0.0014405714267428,0.0117284107117714,-0.4140730897938285,-0.0051101605229714,0.0003794644242285,-0.9102288926262856,0.0014415714267428,0.0014405714267428,0.0117284107117714,2.24003,0.0,0.0,-0.001237,0.0,0.0,0.003443,0.0,0.0,0.0,-8.074673585335972
2023-09-08 15:34:43.800,-0.037087,0.023406,-0.00346,0.092255,0.092266,0.072114,48.35925,-4.5573,48.464281,50.787003,0.598439,0.597568,0.584245,-0.076877,-0.012509,-9.806545,-0.007251,-0.00088,0.016727,33.722012,-0.077553,-0.012363,-9.808055,-0.007512,-0.000795,0.016575,-0.2966992598783999,-0.3429408795776,0.8184367572992,-0.0727774858624,-0.0158271211392,-9.8177455141888,0.2083847500890804,359.44589251632897,131.09142572300357,0.001442,0.001441,0.011729,-0.413954,-0.005155,0.000347,-0.910283,0.001442,0.001441,0.011729,2.24003,0.0,0.0,-0.001237,0.0,0.0,0.003443,0.0,0.0,0.0,-8.059710114788913
2023-09-08 15:34:43.820,-0.0366835,0.022558,-0.003817,0.091344,0.091354,0.0716789999999999,48.35925,-4.5573,48.463565,50.787003,0.5974165,0.596548,0.583791,-0.077088,-0.011483,-9.810351,-0.00934,-0.0003985,0.0166415,33.721973500000004,-0.0774165,-0.011173,-9.810911,-0.00954,-0.00022,0.0165729999999999,-0.2997862598783999,-0.3443713795776,0.8207177572992,-0.0683594858624,-0.0146206211391999,-9.8221795141888,0.1938029742030009,359.4477546291631,131.10921606254237,0.0014364999999999,0.0014355,0.0117279999999999,-0.4138135,-0.0050875,0.000455,-0.9103475,0.0014364999999999,0.0014355,0.0117279999999999,2.24003,0.0,0.0,-0.001237,0.0,0.0,0.003443,0.0,0.0,0.0,-8.041919775250108
2023-09-08 15:34:43.825,-0.0365826262912,0.0223460027136,-0.0039062488576,0.0911162529152,0.0911260029183999,0.071570251392,48.35925,-4.5573,48.4633860022912,50.787003,0.597160878272,0.5962930032639999,0.5836775014528,-0.0771407493248,-0.0112265032831999,-9.8113024878208,-0.0098622433152,-0.0002781265408,0.0166201252736,33.7219638751232,-0.0773823754368,-0.010875503808,-9.8116249908608,-0.0100469935104,-7.625183999999995e-05,0.0165725000064,-0.300558,-0.344729,0.821288,-0.067255,-0.014319,-9.823288,0.1901575768931639,359.4482201514129,131.113663590498,0.0014351250176,0.0014341250176,0.0117277500032,-0.4137783754496,-0.005070625216,0.0004819996544,-0.9103636247936,0.0014351250176,0.0014341250176,0.0117277500032,2.24003,0.0,0.0,-0.00123222506112,0.0,0.0,0.00334320127744,0.0,0.0,0.0,-8.037472247294488
2023-09-08 15:34:43.840,-0.03628,0.02171,-0.004174,0.090433,0.090442,0.071244,48.35925,-4.5573,48.462849,50.787003,0.596394,0.595528,0.583337,-0.077299,-0.010457,-9.814157,-0.011429,8.3e-05,0.016556,33.721935,-0.07728,-0.009983,-9.813767,-0.011568,0.000355,0.016571,-0.3022721323136,-0.3410813594368,0.8093096988928,-0.072160020928,-0.016792135552,-9.8178969769984,0.1792211983169215,359.4496167419973,131.12700640208118,0.001431,0.00143,0.011727,-0.413673,-0.00502,0.000563,-0.910412,0.001431,0.00143,0.011727,2.24003,0.0,0.0,-0.0012179,0.0,0.0,0.0030438,0.0,0.0,0.0,-8.024129435711302
2023-09-08 15:34:43.865,-0.0368218736127999,0.0215768753407999,-0.0047721234688,0.0907629991552,0.0907726241535999,0.0714114995712,48.35925,-4.5573,48.462983374656,50.787003,0.5975302470912,0.5966598721023999,0.5842388726912,-0.0764396272,-0.0073251330176,-9.8147251235456,-0.0139933684352,0.0006892484479999,0.01633725056,33.7221399994752,-0.075633129216,-0.0086073785216,-9.814507623104,-0.0142742430719999,0.0006349992831999,0.0164085004159999,-0.305129,-0.335002,0.789346,-0.080335,-0.020914,-9.808912,0.154906364132192,359.45187275754023,131.1495307477398,0.0014328749951999,0.0014318749952,0.011727,-0.413494875456,-0.0049143752704,0.000747374528,-0.910493249792,0.0014328749951999,0.0014318749952,0.011727,2.24003,0.0,0.0,-0.00119402506112,0.0,0.0,0.00254480127744,0.0,0.0,0.0,-8.001605090052692
2023-09-08 15:34:43.880,-0.037147,0.021497,-0.005131,0.090961,0.090971,0.071512,48.35925,-4.5573,48.463064,50.787003,0.598212,0.597339,0.58478,-0.075924,-0.005446,-9.815066,-0.015532,0.001053,0.016206,33.722263,-0.074645,-0.007782,-9.814952,-0.015898,0.000803,0.016311,-0.3036897438592,-0.33276136544,0.7952987753984,-0.0786474928,-0.0179016121472,-9.8101821304192,0.1403173640275386,359.45322637610667,131.1630454473949,0.001434,0.001433,0.011727,-0.413388,-0.004851,0.000858,-0.910542,0.001434,0.001433,0.011727,2.24003,0.0,0.0,-0.0011797,0.0,0.0,0.0022454,0.0,0.0,0.0,-7.988090390397588
2023-09-08 15:34:43.905,-0.036931375552,0.0214334064127999,-0.0054631866496,0.0908439690496,0.0908538128,0.0714613751296,48.35925,-4.5573,48.4626396260864,50.7871590933504,0.5986185614592,0.597743686464,0.5852365613312,-0.0790046171136,-0.0117734838016,-9.8168716203776,-0.0171207459328,0.0011273748096,0.015974750592,33.722222375104,-0.0786081148544,-0.010556992896,-9.8163007465472,-0.0173467462911999,0.0011354991488,0.0160010007936,-0.301291,-0.329027,0.80522,-0.075835,-0.012881,-9.812299,0.1127080309547456,359.4562343968305,131.18582046144718,0.0014358749951999,0.0014348749952,0.011727,-0.4132080004608,-0.0047272503168,0.0010654994688,-0.9106238747904,0.0014358749951999,0.0014348749952,0.011727,2.24003,0.0,0.0,-0.00115582506112,0.0,0.0,0.00174640127744,0.0,0.0,0.0,-7.965315376345302
2023-09-08 15:34:43.920,-0.036802,0.0213952499999999,-0.0056625,0.09077375,0.0907834999999999,0.071431,48.35925,-4.5573,48.462385000000005,50.78725275,0.5988625,0.5979865,0.5855104999999999,-0.080853,-0.01557,-9.817955,-0.018074,0.001172,0.015836,33.722198,-0.080986,-0.012222,-9.81711,-0.018216,0.001335,0.015815,-0.3017075017770666,-0.329784503232,0.8047471229824,-0.0772812561706666,-0.0117736202752,-9.811955748535466,0.0961423180229521,359.4580392215857,131.19948556316524,0.001437,0.001436,0.011727,-0.4131,-0.004653,0.00119,-0.910673,0.001437,0.001436,0.011727,2.24003,0.0,0.0,-0.0011415,0.0,0.0,0.001447,0.0,0.0,0.0,-7.951650274627241
2023-09-08 15:34:44.020,-0.0359395,0.021140875,-0.00699125,0.090305625,0.09031475,0.0712285,48.35925,-4.5573,48.460687500000006,50.787877125,0.60048875,0.59960525,0.58733675,-0.0826363333333333,-0.0083358333333333,-9.81119,-0.0168614999999999,0.0010053333333333,0.0149151666666666,33.72235383333334,-0.0822251666666666,-0.0070645,-9.8094,-0.0166426666666666,0.001135,0.014855,-0.3044841684437333,-0.334834503232,0.8015946229823999,-0.0869229228373333,-0.0043911202752,-9.809667415202131,299.98704160453343,359.47169471570305,131.28643190857633,0.0014303333333333,0.0014301666666666,0.0117311666666666,-0.4124133333333333,-0.004153,0.0020041666666666,-0.9109846666666668,0.0014303333333333,0.0014301666666666,0.0117311666666666,2.24003,0.0,0.0,-0.001046,0.0,0.0,-0.000549,0.0,0.0,0.0,-7.864703929216148
2023-09-08 15:34:44.025,-0.035896375552,0.0211281564128,-0.0070576866496,0.0902822190496,0.0902913128,0.0712183751296,48.35925,-4.5573,48.460602626086406,50.7879083433504,0.6005700614592,0.5996861864640001,0.5874280613312,-0.0827254988586666,-0.0079741296298666,-9.8108517543296,-0.016800875776,0.0009970001066666,0.0148691255893333,33.722361624900266,-0.0822871242069333,-0.0068066283008,-9.8090145049344,-0.0165640010069333,0.001125000128,0.0148070006144,-0.304623,-0.335087,0.801437,-0.087405,-0.004022,-9.809553,314.9813946386834,359.4723774816694,131.29077917020123,0.0014300000042666,0.0014298750037333,0.0117313749973333,-0.4123790004394666,-0.00412800032,0.0020448744789333,-0.9110002498005334,0.0014300000042666,0.0014298750037333,0.0117313749973333,2.24003,0.0,0.0,-0.00104619999744,0.0,0.0,-0.00055559991552,0.0,0.0,0.0,-7.860356667591247
2023-09-08 15:34:44.040,-0.035767,0.02109,-0.007257,0.090212,0.090221,0.071188,48.35925,-4.5573,48.460348,50.788002,0.600814,0.599929,0.587702,-0.082993,-0.006889,-9.809837,-0.016619,0.000972,0.014731,33.722385,-0.082473,-0.006033,-9.807858,-0.016328,0.001095,0.014663,-0.305667379456,-0.339733269824,0.8045461382656,-0.0864161207808,-0.0043377513472,-9.8083522448768,359.96522146183554,359.4744258145265,131.30382117765856,0.001429,0.001429,0.011732,-0.412276,-0.004053,0.002167,-0.911047,0.001429,0.001429,0.011732,2.24003,0.0,0.0,-0.0010468,0.0,0.0,-0.0005754,0.0,0.0,0.0,-7.847314660133918
2023-09-08 15:34:44.065,-0.0351557515648,0.0213543743232,-0.0073282498176,0.0905419991552,0.0905509991552,0.0713554995712,48.35925,-4.5573,48.4605423745024,50.788002,0.6019508720896,0.6010614971008,0.5886069976831999,-0.0864192412288,-0.0095114932864,-9.8077038804608,-0.0143946306944,0.0010557497856,0.014368500928,33.7230074984064,-0.086341740096,-0.009492366144,-9.8069998771968,-0.0140555058176,0.001038750144,0.0143461258112,-0.307408,-0.347477,0.809728,-0.084768,-0.004864,-9.806351,359.9455260880482,359.4770757375452,131.3241611273153,0.0014308749951999,0.0014302499968,0.0117313750016,-0.4121147504128,-0.0039617502336,0.002313874624,-0.9111201248128,0.0014308749951999,0.0014302499968,0.0117313750016,2.24003,0.0,0.0,-0.00104779999744,0.0,0.0,-0.00060839991552,0.0,0.0,0.0,-7.826974710477174
2023-09-08 15:34:44.080,-0.034789,0.021513,-0.007371,0.09074,0.090749,0.071456,48.35925,-4.5573,48.460659,50.788002,0.602633,0.601741,0.58915,-0.088475,-0.011085,-9.806424,-0.01306,0.001106,0.014151,33.723381,-0.088663,-0.011568,-9.806485,-0.012692,0.001005,0.014156,-0.3061727447296,-0.341696350336,0.811158631104,-0.0882806399872,-0.0062938811008,-9.8088833858048,359.9337087831034,359.4786657022105,131.33636518042198,0.001432,0.001431,0.011731,-0.412018,-0.003907,0.002402,-0.911164,0.001432,0.001431,0.011731,2.24003,0.0,0.0,-0.0010484,0.0,0.0,-0.0006282,0.0,0.0,0.0,-7.814770657370502
2023-09-08 15:34:44.105,-0.0341258766976,0.0218854990464,-0.0071891254656,0.0910706241536,0.0910789991552,0.0716228745728,48.35925,-4.5573,48.4608258745728,50.788002,0.6037817470592,0.6028853720703999,0.5900612476672,-0.0865637548928,-0.0102493771392,-9.8042158806528,-0.0101675074048,0.0008628756224,0.0140753751936,33.7234284998784,-0.0870480041344,-0.0104230029312,-9.8046243797632,-0.00978575744,0.0008118754944,0.0140766252031999,-0.304114,-0.332062,0.813543,-0.094135,-0.008677,-9.813104,359.9207098364037,359.4808500982124,131.35595312489775,0.0014338749952,0.0014328749951999,0.011731,-0.4118630003968,-0.0038432501632,0.0024963747584,-0.9112339998208,0.0014338749952,0.0014328749951999,0.011731,2.24003,0.0,0.0,-0.0010493999974399,0.0,0.0,-0.00066119991552,0.0,0.0,0.0,-7.795182712894729
2023-09-08 15:34:44.120,-0.033728,0.022109,-0.00708,0.091269,0.091277,0.071723,48.35925,-4.5573,48.460926,50.788002,0.604471,0.603572,0.590608,-0.085417,-0.009748,-9.802891,-0.008432,0.000717,0.01403,33.723457,-0.086079,-0.009736,-9.803508,-0.008042,0.000696,0.014029,-0.3019067405823999,-0.3368117702656,0.8087883547136,-0.0897876064512,-0.0057767376256,-9.808272479385598,359.9129104151401,359.4821607447608,131.36770597181564,0.001435,0.001434,0.011731,-0.41177,-0.003805,0.002553,-0.911276,0.001435,0.001434,0.011731,2.24003,0.0,0.0,-0.00105,0.0,0.0,-0.000681,0.0,0.0,0.0,-7.783429865976842
2023-09-08 15:34:44.145,-0.0330836266496,0.0225646238336,-0.0069412503552,0.0915996241536,0.0916076241535999,0.0718892495744,48.35925,-4.5573,48.4610909995776,50.788002,0.6056322470272,0.6047288720384,0.591526747648,-0.0837838791808,-0.0099273745408,-9.8024103762304,-0.0051607583744,6.200167680000005e-05,0.0134887513856,33.7232401255552,-0.0839127555456,-0.0101416239616,-9.802154878464,-0.0046970085632,8.912655359999996e-05,0.0134765014144,-0.298228,-0.344728,0.800864,-0.082542,-0.000943,-9.80022,359.9075747593323,359.48294855971227,131.38636286225784,0.0014368749952,0.0014358749951999,0.0117353749888,-0.4116218753792,-0.003780000064,0.0025923748991999,-0.9113428748288,0.0014368749952,0.0014358749951999,0.0117353749888,2.24003,0.0,0.0,-0.0010193750784,0.0,0.0,-0.0003590008243199,0.0,0.0,0.0,-7.76477297553464
2023-09-08 15:34:44.160,-0.032697,0.022838,-0.006858,0.091798,0.091806,0.071989,48.35925,-4.5573,48.46119,50.788002,0.606329,0.605423,0.592078,-0.082804,-0.010035,-9.802122,-0.003198,-0.000331,0.013164,33.72311,-0.082613,-0.010385,-9.801343,-0.00269,-0.000275,0.013145,-0.3020035161088,-0.3421963641984,0.7966422319872001,-0.082225123648,-0.0042928892928,-9.7987338686592,359.9043733439927,359.48342125191004,131.39755707294196,0.001438,0.001437,0.011738,-0.411533,-0.003765,0.002616,-0.911383,0.001438,0.001437,0.011738,2.24003,0.0,0.0,-0.001001,0.0,0.0,-0.0001657999999999,0.0,0.0,0.0,-7.753578764850516
2023-09-08 15:34:44.185,-0.0316730442879999,0.0227698751744,-0.0059938355456,0.0911827932416,0.0911905849088,0.0716923340928,48.35925,-4.5573,48.459627504,50.7877938755328,0.6058671261824,0.6049619595136,0.5919927918848,-0.0866302402048,-0.0119656200576,-9.7966838889216,0.0004732406016,-0.000490374592,0.0132958746624,33.723186249804805,-0.0867773643392,-0.0117118716031999,-9.796658636992,0.0008487409408,-0.0005899991935999,0.0132431247488,-0.308296,-0.337977,0.789606,-0.081697,-0.009876,-9.796257,359.9071306963229,359.4835286812216,131.41624977315468,0.0014398749952,0.0014388749952,0.0117373750016,-0.4113842503808,-0.003774374976,0.0025928750592,-0.9114504998272,0.0014398749952,0.0014388749952,0.0117373750016,2.24003,0.0,0.0,-0.0009703750784,0.0,0.0,0.00015619917568,0.0,0.0,0.0,-7.734886064637806
2023-09-08 15:34:44.200,-0.0310586666666666,0.022729,-0.0054753333333333,0.0908136666666666,0.0908213333333333,0.0715143333333333,48.35925,-4.5573,48.45869,50.787669,0.60559,0.6046853333333334,0.5919416666666667,-0.088926,-0.013124,-9.793421,0.002676,-0.000586,0.013375,33.723232,-0.089276,-0.012508,-9.793848,0.002972,-0.000779,0.013302,-0.3099255694528,-0.3379233747712,0.7935371417728,-0.078947300768,-0.0087845578432,-9.7967664396736,359.9087851190152,359.48359313924857,131.4274654698478,0.001441,0.00144,0.011737,-0.411295,-0.00378,0.002579,-0.911491,0.001441,0.00144,0.011737,2.24003,0.0,0.0,-0.0009519999999999,0.0,0.0,0.0003494,0.0,0.0,0.0,-7.723670367944692
2023-09-08 15:34:44.265,-0.0283963776213333,0.0225518751744,-0.0032285022122666,0.0892141265749333,0.0892212515754666,0.0707430007594666,48.35925,-4.5573,48.454627504,50.7871278755328,0.6043891261824,0.6034866261802667,0.5917201252181333,-0.0795773842048,-0.0120645010432,-9.7938012496256,0.0104410548544,-0.0009589371327999,0.013358750016,33.7222927509248,-0.0796308219968,-0.0134188116032,-9.7938528749952,0.0108053047872,-0.0009553123264,0.013358874944,-0.316987,-0.337691,0.810572,-0.067032,-0.004055,-9.798974,359.9436997002785,359.484710405849,131.4755079336661,0.001424750016,0.0014245625152,0.0117353750016,-0.4109115003776,-0.003897812384,0.0022954377792,-0.9116640623296,0.001424750016,0.0014245625152,0.0117353750016,2.24003,0.0,0.0,-0.0008723750784,0.0,0.0,0.00118659917568,0.0,0.0,0.0,-7.675627904126372
2023-09-08 15:34:44.280,-0.027782,0.022511,-0.00271,0.088845,0.088852,0.070565,48.35925,-4.5573,48.45369,50.787003,0.604112,0.60321,0.591669,-0.07742,-0.01182,-9.793889,0.012233,-0.001045,0.013355,33.722076,-0.077405,-0.013629,-9.793854,0.012613,-0.000996,0.013372,-0.3168628744704,-0.3365442451072,0.8135993879168,-0.0739406544768,-0.0084260186496,-9.7964517392384,359.95175695365,359.4849682379569,131.48659471430528,0.001421,0.001421,0.011735,-0.410823,-0.003925,0.00223,-0.911704,0.001421,0.001421,0.011735,2.24003,0.0,0.0,-0.000854,0.0,0.0,0.0013798,0.0,0.0,0.0,-7.664541123487197
2023-09-08 15:34:44.305,-0.0273673135616,0.0228053742464,-0.002385000832,0.0891731241599999,0.08918012416,0.0707334370688,48.35925,-4.5573,48.4537749997824,50.787003,0.60522918464,0.6043228096512,0.5925674352,-0.081819988736,-0.0136599952896,-9.7934615010944,0.0142467448448,-0.0009625002112,0.0134124998528,33.7220235001344,-0.082551861824,-0.0150521213568,-9.7936302505728,0.0145836199551999,-0.0009785000448,0.013428249856,-0.316656,-0.334633,0.818645,-0.085455,-0.015711,-9.792248,359.97284890848766,359.48475337933377,131.50664818579784,0.0014228749951999,0.0014222499968,0.0117343750016,-0.410665187904,-0.0040059372928,0.002055000448,-0.9117749373184,0.0014228749952,0.001422562496,0.0117368749952,2.24003,0.0,0.0,-0.0008233750784,0.0,0.0,0.00170179917568,0.0,0.0,0.0,-7.644487651994638
2023-09-08 15:34:44.320,-0.0271185,0.022982,-0.00219,0.08937,0.089377,0.0708345,48.35925,-4.5573,48.453826,50.787003,0.6058995,0.6049905,0.5931065,-0.08446,-0.014764,-9.793205,0.015455,-0.000913,0.013447,33.721992,-0.08564,-0.015906,-9.793496,0.015766,-0.000968,0.013462,-0.3168427507967999,-0.3369362598272,0.8141011056128,-0.0838064929664,-0.01452036992,-9.7937382563584,359.9855041677832,359.48462446327983,131.51868035083262,0.001424,0.001423,0.011734,-0.4105705,-0.0040545,0.00195,-0.9118175,0.001424,0.0014234999999999,0.011738,2.24003,0.0,0.0,-0.000805,0.0,0.0,0.001895,0.0,0.0,0.0,-7.632455486959856
2023-09-08 15:34:44.345,-0.0267038135616,0.0232763742464,-0.001865000832,0.08969812416,0.08970512416,0.0710029370688,48.35925,-4.5573,48.4539109997824,50.787003,0.60701668464,0.6061033096512,0.5940049352,-0.0796075124224,-0.015863997184,-9.794289372224,0.0164837473664,-0.0009136249984,0.0134919998848,33.7212320019456,-0.0798162649088,-0.0166047482112,-9.7945572472832,0.0165553729791999,-0.0009792499712,0.013583874688,-0.317154,-0.340775,0.806528,-0.081059,-0.012536,-9.796222,135.00899842091752,359.4843737948862,131.53808924645577,0.0014258749952,0.0014248749952,0.0117383749888,-0.410412687904,-0.0041354372928,0.001775000448,-0.9118884373184,0.0014258749952,0.001425062496,0.0117398749952,2.24003,0.0,0.0,-0.00072900019456,0.0,0.0,0.00221924916992,0.0,0.0,0.0,-7.613046591336712
2023-09-08 15:34:44.360,-0.026455,0.023453,-0.00167,0.089895,0.089902,0.071104,48.35925,-4.5573,48.453962,50.787003,0.607687,0.606771,0.594544,-0.076696,-0.016524,-9.79494,0.017101,-0.000914,0.013519,33.720776,-0.076322,-0.017024,-9.795194,0.017029,-0.000986,0.013657,-0.3148529901824,-0.3350269754752,0.8048341177728,-0.0785266141952,-0.0128352512768,-9.7962917502976,0.0221734666715628,359.48422339282325,131.5497346633287,0.001427,0.001426,0.011741,-0.410318,-0.004184,0.00167,-0.911931,0.001427,0.001426,0.011741,2.24003,0.0,0.0,-0.0006834,0.0,0.0,0.0024138,0.0,0.0,0.0,-7.601401174463774
2023-09-08 15:34:44.385,-0.0263493752704,0.0235548747392,-0.001360625792,0.0902237491584,0.0902307491584,0.0712714995712,48.35925,-4.5573,48.4540126248704,50.787003,0.6088226220928,0.607902247104,0.5954521226752,-0.0782291210752,-0.0153671279616,-9.7943787514368,0.0173834992768,-0.0008146252544,0.013750249408,33.720916624640004,-0.0776713715456,-0.0142983819776,-9.7941890025728,0.01729462432,-0.0008260004095999,0.0137644997247999,-0.311018,-0.325447,0.802011,-0.074306,-0.013334,-9.796408,0.0457004859047988,359.48433082213484,131.56946584688657,0.0014288749952,0.0014278749951999,0.0117403750016,-0.4101598754048,-0.0042677497856,0.0014818754816,-0.9120022498176,0.0014288749952,0.0014278749951999,0.0117403750016,2.24003,0.0,0.0,-0.00060740019456,0.0,0.0,0.00273804916992,0.0,0.0,0.0,-7.581669990905908
2023-09-08 15:34:44.400,-0.026286,0.023616,-0.001175,0.090421,0.090428,0.071372,48.35925,-4.5573,48.454043,50.787003,0.609504,0.608581,0.595997,-0.079149,-0.014673,-9.794042,0.017553,-0.000755,0.013889,33.721001,-0.078481,-0.012663,-9.793586,0.017454,-0.00073,0.013829,-0.3098671200896,-0.3313360251264,0.8003778680320001,-0.0752011288191999,-0.008976481408,-9.7920077312256,0.0598167938116579,359.4843952801618,131.58130463784042,0.00143,0.001429,0.01174,-0.410065,-0.004318,0.001369,-0.912045,0.00143,0.001429,0.01174,2.24003,0.0,0.0,-0.0005618,0.0,0.0,0.0029326,0.0,0.0,0.0,-7.569831199952063
2023-09-08 15:34:44.420,-0.025348,0.0228905,0.0004075,0.088143,0.0881515,0.070112,48.35925,-4.5573,48.44516,50.7875025,0.5949185,0.594056,0.5833735,-0.0781875,-0.0121975,-9.7951425,0.0167455,-0.0008675,0.01388,33.721371000000005,-0.078167,-0.0116105,-9.794389,0.0167185,-0.000822,0.0138579999999999,-0.3083326200896,-0.3391880251264,0.798200368032,-0.0763946288191999,-0.003166481408,-9.7861407312256,0.0767763445475302,359.4848536463979,131.5965453151909,0.001419,0.001418,0.011739,-0.4099435,-0.0043749999999999,0.0012315,-0.9120995,0.001419,0.001418,0.011739,2.24003,0.0,0.0,-0.000501,0.0,0.0,0.003192,0.0,0.0,0.0,-7.554590522601586
2023-09-08 15:34:44.425,-0.0251135030016,0.0227091273216,0.000803119936,0.0875735072896,0.0875823822848,0.069797004032,48.35925,-4.5573,48.4429392784256,50.7876273734016,0.5912721716736,0.59042479648,0.5802176653952,-0.0779471280768,-0.0115786329216,-9.7954176214784,0.016543627584,-0.00089562464,0.0138777500288,33.721463498816,-0.0780885010048,-0.011347378368,-9.7945897474304,0.0165346273536,-0.0008449997056,0.0138652499072,-0.307949,-0.341151,0.797656,-0.076693,-0.001714,-9.784674,0.0810161779609359,359.48496823649015,131.60035543575836,0.0014162500352,0.0014152500352,0.0117387500032,-0.4099131253888,-0.0043892498176,0.00119712544,-0.9121131248256,0.0014162500352,0.0014152500352,0.0117387500032,2.24003,0.0,0.0,-0.00048290023168,0.0,0.0,0.00323119949824,0.0,0.0,0.0,-7.550780402034121
2023-09-08 15:34:44.440,-0.02441,0.022165,0.00199,0.085865,0.085875,0.068852,48.35925,-4.5573,48.436277,50.788002,0.580333,0.579531,0.57075,-0.077226,-0.009722,-9.796243,0.015938,-0.00098,0.013871,33.721741,-0.077853,-0.010558,-9.795192,0.015983,-0.000914,0.013887,-0.3102170096768,-0.3387258646527999,0.8008896387968,-0.0760858724096,-0.0073033988479999,-9.7885672666112,0.0937358952834026,359.485312012634,131.61178599254137,0.001408,0.001407,0.011738,-0.409822,-0.004432,0.001094,-0.912154,0.001408,0.001407,0.011738,2.24003,0.0,0.0,-0.0004286,0.0,0.0,0.0033488,0.0,0.0,0.0,-7.53934984525111
2023-09-08 15:34:44.465,-0.0246456243968,0.0222224998528,0.0020824997632,0.0861918741632,0.0862018741632,0.0690244995584,48.35925,-4.5573,48.4362788749952,50.788002,0.581357997376,0.5805516223872,0.5715912478464,-0.0730853856,-0.011671995008,-9.7988292433792,0.0143448790784,-0.0006931257344,0.0139872497024,33.7210491267712,-0.0733898864256,-0.0130504936192,-9.7991176149504,0.0142055045504,-0.0006071257856,0.0139888747392,-0.313997,-0.334684,0.806279,-0.075074,-0.016619,-9.795056,0.1110678242162583,359.4858491591918,131.63155298586975,0.0014098749951999,0.0014088749952,0.0117373750016,-0.4096638754048,-0.0044901248512,0.0009540003584,-0.9122252498176,0.0014098749951999,0.0014088749952,0.0117373750016,2.24003,0.0,0.0,-0.00033810023168,0.0,0.0,0.00354479949824,0.0,0.0,0.0,-7.519582851922735
2023-09-08 15:34:44.480,-0.024787,0.022257,0.002138,0.086388,0.086398,0.069128,48.35925,-4.5573,48.43628,50.788002,0.581973,0.581164,0.572096,-0.070601,-0.012842,-9.800381,0.013389,-0.000521,0.014057,33.720634,-0.070712,-0.014546,-9.801473,0.013139,-0.000423,0.01405,-0.3139954999936,-0.3346843750016,0.8062793750016,-0.0798136452224,-0.0171128771071999,-9.7983443890304,0.1214670525677345,359.48617144932666,131.64341326283258,0.001411,0.00141,0.011737,-0.409569,-0.004525,0.00087,-0.912268,0.001411,0.00141,0.011737,2.24003,0.0,0.0,-0.0002838,0.0,0.0,0.0036624,0.0,0.0,0.0,-7.5077225749598995
2023-09-08 15:34:44.505,-0.0248607498112,0.0220251255936,0.0021586249472,0.08671612416,0.0867254991616,0.06929987456,48.35925,-4.5573,48.436289374976,50.788002,0.5830092473471999,0.5821964973568,0.5729441228288,-0.0784959797888,-0.0131869991168,-9.8034678670976,0.0111371307648,-0.000199125824,0.0142432495232,33.7208296244992,-0.0787051045376,-0.0142110008576,-9.803335495232,0.0107552561024,-0.000207375552,0.014278124416,-0.313993,-0.334685,0.80628,-0.087713,-0.017936,-9.803825,0.1333200866106585,359.48720993267176,131.6645052176703,0.0014128749951999,0.0014118749952,0.011737,-0.409400250432,-0.004559374912,0.0007706252544,-0.9123436248064,0.0014128749951999,0.0014118749952,0.011737,2.24003,0.0,0.0,-0.0001933002316799,0.0,0.0,0.00385839949824,0.0,0.0,0.0,-7.486630620122185
2023-09-08 15:34:44.520,-0.024905,0.021886,0.002171,0.086913,0.086922,0.069403,48.35925,-4.5573,48.436295,50.788002,0.583631,0.582816,0.573453,-0.083233,-0.013394,-9.80532,0.009786,-6e-06,0.014355,33.720947,-0.083501,-0.01401,-9.804453,0.009325,-7.8e-05,0.014415,-0.3105478603008,-0.333655620608,0.8029563608192,-0.084900488,-0.0179555000832,-9.8047988791552,0.1404319555865647,359.4878330269325,131.6771604769658,0.001414,0.001413,0.011737,-0.409299,-0.00458,0.000711,-0.912389,0.001414,0.001413,0.011737,2.24003,0.0,0.0,-0.000139,0.0,0.0,0.003976,0.0,0.0,0.0,-7.473975360826671
2023-09-08 15:34:44.545,-0.02512374944,0.0217522503424,0.0019441255808,0.0872404991616,0.08725012416,0.0695742495616,48.35925,-4.5573,48.4362737500544,50.788002,0.5846791223168001,0.583859747328,0.5743073728128,-0.0799405084288,-0.0145433720576,-9.806766871296,0.0072397565184,-0.0003953740031999,0.014333125056,33.7210307497856,-0.0791972610176,-0.0138362504448,-9.8074854922368,0.0069893809792,-0.0003923741951999,0.014405625024,-0.304806,-0.33194,0.797417,-0.080213,-0.017988,-9.806422,0.1469493338216468,359.48811950509673,131.69764366570462,0.0014158749952,0.0014148749951999,0.0117407499904,-0.4091358754176,-0.0046006249472,0.000657875136,-0.9124621248128,0.0014158749952,0.0014148749951999,0.0117407499904,2.24003,0.0,0.0,-6.893767935999999e-05,0.0,0.0,0.00376593803776,0.0,0.0,0.0,-7.453492172087863
2023-09-08 15:34:44.560,-0.025255,0.021672,0.001808,0.087437,0.087447,0.069677,48.35925,-4.5573,48.436261,50.788002,0.585308,0.584486,0.57482,-0.077965,-0.015233,-9.807635,0.005712,-0.000629,0.01432,33.721081,-0.076615,-0.013732,-9.809305,0.005588,-0.000581,0.0144,-0.3080726389376,-0.329494989568,0.8052875335808001,-0.0811096288256,-0.0131677294336,-9.8066053757824,0.1508597874579457,359.48829139316865,131.70993366284728,0.001417,0.001416,0.011743,-0.409038,-0.004613,0.000626,-0.912506,0.001417,0.001416,0.011743,2.24003,0.0,0.0,-2.6899999999999976e-05,0.0,0.0,0.0036399,0.0,0.0,0.0,-7.441202174945204
2023-09-08 15:34:44.585,-0.0252506944554666,0.0214051256832,0.0017888333824,0.0873188058581333,0.0873285975253333,0.0696203334784,48.35925,-4.5573,48.43534773844907,50.7879326251776,0.5856466796885333,0.5848229435818666,0.5752098601130666,-0.0779487500416,-0.012298632512,-9.8082368734592,0.0033007561727999,-0.0005240002688,0.0143143750144,33.720899750464,-0.0778018719616,-0.0115220056576,-9.8087137515136,0.0030561314816,-0.0004878752384,0.0142293754368,-0.313517,-0.32542,0.818405,-0.082604,-0.005134,-9.806911,0.1515401730978718,359.488792729956,131.7300945636514,0.0014182499967999,0.0014178749951999,0.011743,-0.4088773754112,-0.0046117500032,0.0006172500224,-0.912577874816,0.0014182499967999,0.0014178749951999,0.011743,2.24003,0.0,0.0,4.316232064000003e-05,0.0,0.0,0.00342983803776,0.0,0.0,0.0,-7.421041274141089
2023-09-08 15:34:44.600,-0.0252481111111111,0.021245,0.0017773333333333,0.0872478888888888,0.0872575555555555,0.0695863333333333,48.35925,-4.5573,48.434799777777776,50.787891,0.5858498888888889,0.5850251111111111,0.5754437777777778,-0.077939,-0.010538,-9.808598,0.001854,-0.000461,0.014311,33.720791,-0.078514,-0.010196,-9.808359,0.001537,-0.000432,0.014127,-0.3134235777264,-0.3254172812383999,0.817069759928,-0.0826865941024,-0.0055062828384,-9.807211938784,0.1519484072686943,359.48909353408186,131.74219118671314,0.001419,0.001419,0.011743,-0.408781,-0.004611,0.000612,-0.912621,0.001419,0.001419,0.011743,2.24003,0.0,0.0,8.520000000000004e-05,0.0,0.0,0.0033038,0.0,0.0,0.0,-7.408944651079338
2023-09-08 15:34:44.905,-0.0251955833443555,0.0179891256832,0.0015435000490666,0.0858059169692444,0.0858130419697777,0.0688950001450666,48.35925,-4.5573,48.42365796067129,50.7870446251776,0.5899817907996444,0.5891358324707556,0.5802000823352889,-0.0822728584656,-0.0091492971664,-9.8139107176352,0.0021866405552,-0.0014169841744,0.0159017652912,33.72191092164,-0.0810359682208,-0.0085461409712,-9.8134353426848,0.0024872654256,-0.0014146716688,0.0158492965136,-0.311524,-0.325362,0.78992,-0.084366,-0.013076,-9.813331,0.0742383368707905,359.4815027401358,132.00737748457132,0.0014075625024,0.0014066093776,0.011743,-0.4066707816928,-0.00439654692,0.0012477342416,-0.9135636404272,0.0014075625024,0.0014066093776,0.011743,2.24003,0.0,0.0,0.00093996232064,0.0,0.0,0.00074103803776,0.0,0.0,0.0,-7.143758353221159
2023-09-08 15:34:44.920,-0.025193,0.017829,0.001532,0.085735,0.085742,0.068861,48.35925,-4.5573,48.42311,50.787003,0.590185,0.589338,0.580434,-0.082486,-0.009081,-9.814172,0.002203,-0.001464,0.01598,33.721966,-0.08116,-0.008465,-9.813685,0.002534,-0.001463,0.015934,-0.3112528738432,-0.330081395136,0.7959492757248,-0.0807431095424,-0.0126856233344,-9.8143562543744,0.0704165130215781,359.4811294207296,132.02041949202865,0.001407,0.001406,0.011743,-0.406567,-0.004386,0.001279,-0.91361,0.001407,0.001406,0.011743,2.24003,0.0,0.0,0.000982,0.0,0.0,0.000615,0.0,0.0,0.0,-7.13071634576383
2023-09-08 15:34:44.945,-0.0253042497152,0.0178252500096,0.0013020005888,0.0860618741632,0.0860688741632,0.0690334995584,48.35925,-4.5573,48.4230950000384,50.787003,0.5912143723648,0.5903629973760001,0.5812814978304001,-0.0782303858944,-0.0094634990208,-9.8124476294144,0.0039642454912,-0.0012846254592,0.0159343751168,33.721972874982406,-0.0782987573248,-0.0096287470208,-9.8120650041472,0.0043171204352,-0.0011667507584,0.0159452499712,-0.310801,-0.337947,0.805998,-0.074705,-0.012035,-9.816065,0.0766116033219583,359.48087875233585,132.0431228865399,0.0014088749952,0.0014078749952,0.0117467499904,-0.406385750464,-0.004410999936,0.0012302501248,-0.9136899997952,0.0014088749952,0.0014078749952,0.0117467499904,2.24003,0.0,0.0,0.00097341668864,0.0,0.0,0.00051825024768,0.0,0.0,0.0,-7.10801295125259
2023-09-08 15:34:44.960,-0.025371,0.017823,0.001164,0.086258,0.086265,0.069137,48.35925,-4.5573,48.423086,50.787003,0.591832,0.590978,0.58179,-0.075677,-0.009693,-9.811413,0.005021,-0.001177,0.015907,33.721977,-0.076582,-0.010327,-9.811093,0.005387,-0.000989,0.015952,-0.3096144949376,-0.3356639902592,0.8059053746047999,-0.0770690100863999,-0.0098007404672,-9.8114202301824,0.0803286828773414,359.4807283502729,132.05674501623997,0.00141,0.001409,0.011749,-0.406277,-0.004426,0.001201,-0.913738,0.00141,0.001409,0.011749,2.24003,0.0,0.0,0.0009682666666666,0.0,0.0,0.0004601999999999,0.0,0.0,0.0,-7.094390821552508
2023-09-08 15:34:44.985,-0.02560337440512,0.01753762573056,0.00124737478656,0.08624212504064,0.08624912504064,0.06913212501248,48.35925,-4.5573,48.42246200159744,50.787003,0.59231662375936,0.5914604987648,0.58227537375744,-0.0778076195456,-0.0079142545536,-9.8087648817792,0.007045994816,-0.000905125696,0.015838250176,33.722620748352,-0.0779788714239999,-0.0084007549311999,-9.8087167560832,0.0071576204672,-0.0009321251456,0.0157870004224,-0.307637,-0.331859,0.805751,-0.081009,-0.006077,-9.803679,0.0905702772467561,359.48058511119086,132.0791261228165,0.0014118749952,0.0014108749952,0.011749,-0.4060982504576,-0.004463499904,0.0011185002112,-0.9138179997952,0.0014118749952,0.0014108749952,0.011749,2.24003,0.0,0.0,0.0009596833553066,0.0,0.0,0.0003634502476799,0.0,0.0,0.0,-7.072009714975991
2023-09-08 15:34:45.000,-0.0257428,0.0173664,0.0012974,0.0862326,0.0862396,0.0691292,48.35925,-4.5573,48.4220876,50.787003,0.5926074,0.59175,0.5825666,-0.079086,-0.006847,-9.807176,0.008261,-0.000742,0.015797,33.723007,-0.078817,-0.007245,-9.807291,0.00822,-0.000898,0.015688,-0.3082057836768,-0.3306682761696,0.8065615659584,-0.0802673405855999,-0.0068708783872,-9.8032231855552,0.0967152758180829,359.4804991671549,132.09255487843564,0.001413,0.001412,0.011749,-0.405991,-0.004486,0.001069,-0.913866,0.001413,0.001412,0.011749,2.24003,0.0,0.0,0.0009545333333333,0.0,0.0,0.0003053999999999,0.0,0.0,0.0,-7.058580959356846
2023-09-08 15:34:45.145,-0.02709057440512,0.01571122573056,0.00178097478656,0.08614052504064,0.08614752504064,0.06910092501248,48.35925,-4.5573,48.41846840159744,50.787003,0.59541822375936,0.5945484987648,0.58538177375744,-0.0792291874367999,-0.0092259051999999,-9.8002640343008,0.0068735318624,0.0012290928799999,0.0150248753408,33.7219566567136,-0.0780167816032,-0.0108129046751999,-9.8003337218208,0.0066168444576,0.0014727489536,0.014913156592,-0.313704,-0.319158,0.814397,-0.073098,-0.014545,-9.798817,0.1603744397454867,359.4941552520757,132.22298866292635,0.0014093750016,0.0014092812512,0.0117526249984,-0.4049479067104,-0.0046029061984,0.0005080314976,-0.914328187296,0.0014093750016,0.0014092812512,0.0117526249984,2.24003,0.0,0.0,0.0009047500219733,0.0,0.0,-0.00025574975232,0.0,0.0,0.0,-6.928147174866126
2023-09-08 15:34:45.160,-0.02723,0.01554,0.001831,0.086131,0.086138,0.069098,48.35925,-4.5573,48.418094,50.787003,0.595709,0.594838,0.585673,-0.079244,-0.009472,-9.799549,0.00673,0.001433,0.014945,33.721848,-0.077934,-0.011182,-9.799614,0.006451,0.001718,0.014833,-0.3140100013056,-0.3226110147328,0.8068272177024001,-0.072471747328,-0.0100007306112,-9.8045541494784,0.1669599015011219,359.4955679571668,132.2364818765725,0.001409,0.001409,0.011753,-0.40484,-0.004615,0.00045,-0.914376,0.001409,0.001409,0.011753,2.24003,0.0,0.0,0.0008996,0.0,0.0,-0.0003138,0.0,0.0,0.0,-6.914653961219983
2023-09-08 15:34:45.185,-0.0276068740352,0.0151956258816,0.0016191255424,0.0864584991615999,0.0864648741632,0.06926987456,48.35925,-4.5573,48.4180964999936,50.787003,0.5967483723392,0.5958729973504,0.5865279978112,-0.0768871310336,-0.0075513799168,-9.8035714897024,0.004642505344,0.0016754993792,0.0148037503616,33.722247998976,-0.077212126848,-0.0077420088063999,-9.8045683623168,0.0044128802176,0.00165550016,0.0146836253824,-0.31452,-0.328366,0.794211,-0.071428,-0.002427,-9.814116,0.1700395417660507,359.4989698853665,132.25814678773858,0.0014108749952,0.0014102499967999,0.0117523750016,-0.4046675004416,-0.0045987500416,0.000412500096,-0.9144522498048,0.0014108749952,0.0014102499967999,0.0117523750016,2.24003,0.0,0.0,0.00089101668864,0.0,0.0,-0.00041054975232,0.0,0.0,0.0,-6.892989050053899
2023-09-08 15:34:45.200,-0.027833,0.014989,0.001492,0.086655,0.086661,0.069373,48.35925,-4.5573,48.418098,50.787003,0.597372,0.596494,0.587041,-0.075473,-0.006399,-9.805985,0.00339,0.001821,0.014719,33.722488,-0.076779,-0.005678,-9.807541,0.00319,0.001618,0.014594,-0.3143842494208,-0.3307258850687999,0.7972256378624,-0.0770410239488,-0.0050486361855999,-9.8073157209856,0.1718873385392469,359.5010110562206,132.27114582317793,0.001412,0.001411,0.011752,-0.404564,-0.004589,0.00039,-0.914498,0.001412,0.001411,0.011752,2.24003,0.0,0.0,0.0008858666666666,0.0,0.0,-0.0004686,0.0,0.0,0.0,-6.879990014614549
2023-09-08 15:34:45.220,-0.0279295,0.0146935,0.001557,0.0859455,0.0859515,0.0690085,48.35925,-4.5573,48.4177115,50.787003,0.5966535,0.5957775,0.5866910000000001,-0.0819365,-0.0097445,-9.803591,0.001248,0.0016365,0.014423,33.722564500000004,-0.082737,-0.0092655,-9.80385,0.00087,0.0015305,0.0143675,-0.3142032494208,-0.3338723850687999,0.8012451378624,-0.0845250239488,-0.0085441361856,-9.7982487209856,0.1690798453431058,359.50350342262936,132.2875037682289,0.001408,0.0014075,0.0117515,-0.4044335,-0.004559,0.000403,-0.914556,0.001408,0.0014075,0.0117515,2.24003,0.0,0.0,0.000879,0.0,0.0,-0.000546,0.0,0.0,0.0,-6.863632069563579
2023-09-08 15:34:45.225,-0.0279536246912,0.0146196259456,0.001573249792,0.0857681272704,0.0857741272704,0.0689173761664,48.35925,-4.5573,48.4176148762368,50.787003,0.5964738772992,0.5955983772928,0.58660350112,-0.0835523543168,-0.0105808642944,-9.8029925076608,0.0007125068544,0.0015903755904,0.0143490009472,33.7225836247552,-0.0842264809344,-0.0101623635199999,-9.8029272618112,0.000290007424,0.00150862528,0.0143108757248,-0.314158,-0.334659,0.80225,-0.086396,-0.009418,-9.795982,0.1683779810280488,359.504126506256,132.29159320214623,0.0014070000128,0.0014066250112,0.0117513750016,-0.4044008754176,-0.004551500096,0.0004062499584,-0.9145704998144,0.0014070000128,0.0014066250112,0.0117513750016,2.24003,0.0,0.0,0.00088448742976,0.0,0.0,-0.00050502552448,0.0,0.0,0.0,-6.85954263564625
2023-09-08 15:34:45.240,-0.028026,0.014398,0.001622,0.085236,0.085242,0.068644,48.35925,-4.5573,48.417325,50.787003,0.595935,0.595061,0.586341,-0.0884,-0.01309,-9.801197,-0.000894,0.001452,0.014127,33.722641,-0.088695,-0.012853,-9.800159,-0.00145,0.001443,0.014141,-0.313102370496,-0.3323523651584,0.7991333617024,-0.0850351191936,-0.005525483392,-9.7982511346816,0.1662723521469649,359.5059957890382,132.30386171327987,0.001404,0.001404,0.011751,-0.404303,-0.004529,0.000416,-0.914614,0.001404,0.001404,0.011751,2.24003,0.0,0.0,0.00090095,0.0,0.0,-0.0003821,0.0,0.0,0.0,-6.847274124512609
2023-09-08 15:34:45.265,-0.0282472494335999,0.0139767510783999,0.0015545001728,0.0855628741632,0.0855682491648,0.0688171245568,48.35925,-4.5573,48.4172925000832,50.787003,0.5969556223872,0.5960778723968,0.5871872478336,-0.083937511424,-0.0078850133248,-9.8023244971136,-0.0041421166848,0.0013232503295999,0.013739500992,33.7227891246208,-0.0841381366656,-0.007818637888,-9.8017302459776,-0.0044537423104,0.0013505002367999,0.0137460010112,-0.311343,-0.328508,0.793939,-0.082767,0.000962,-9.802033,0.1558158991544155,359.5089679999916,132.3230199405094,0.0014058749952,0.0014052499967999,0.011751,-0.4041505003904,-0.0044690001536,0.000487874816,-0.9146814998272,0.0014058749952,0.0014052499967999,0.011751,2.24003,0.0,0.0,0.00092838742976,0.0,0.0,-0.00017722552448,0.0,0.0,0.0,-6.828115897283084
2023-09-08 15:34:45.280,-0.02838,0.013724,0.001514,0.085759,0.085764,0.068921,48.35925,-4.5573,48.417273,50.787003,0.597568,0.596688,0.587695,-0.08126,-0.004762,-9.803001,-0.006091,0.001246,0.013507,33.722878,-0.081404,-0.004798,-9.802673,-0.006256,0.001295,0.013509,-0.312610505408,-0.3249368597632,0.7925417440383999,-0.085125760064,5.374612480000011e-05,-9.8024432517504,0.1495419845291448,359.5107513387378,132.3345149553194,0.001407,0.001406,0.011751,-0.404059,-0.004433,0.000531,-0.914722,0.001407,0.001406,0.011751,2.24003,0.0,0.0,0.00094485,0.0,0.0,-5.4299999999999965e-05,0.0,0.0,0.0,-6.8166208824730745
2023-09-08 15:34:45.305,-0.0280625008127999,0.0138389104201142,0.0017350708626285,0.0858389105097142,0.0858442676516571,0.0689468927908571,48.35925,-4.5573,48.41727764284526,50.787003,0.5962476462372571,0.5953734497938286,0.5864509853275428,-0.0844718667776,-0.0060076218112,-9.8035878734976,-0.0086853683584,0.000689751424,0.013353875392,33.7230398745856,-0.084116493056,-0.0058536222975999,-9.803944871744,-0.0090016179712,0.0006737515904,0.0132890005632,-0.314723,-0.318985,0.790213,-0.089057,-0.00146,-9.803127,0.1328188216951703,359.5123269686408,132.35342251415526,0.0014088749952,0.0014078749952,0.011751,-0.4039083753856,-0.0043617501824,0.0006584996736,-0.9147888748288,0.0014088749952,0.0014078749952,0.011751,2.24003,0.0,0.0,0.00097228742976,0.0,0.0,0.00015057447552,0.0,0.0,0.0,-6.797713323637225
2023-09-08 15:34:45.320,-0.0278719999999999,0.0139078571428571,0.0018677142857142,0.0858868571428571,0.0858924285714285,0.0689624285714285,48.35925,-4.5573,48.41728042857143,50.787003,0.5954554285714285,0.5945847142857142,0.5857045714285714,-0.086399,-0.006755,-9.80394,-0.010242,0.000356,0.013262,33.723137,-0.085744,-0.006487,-9.804708,-0.010649,0.000301,0.013157,-0.3146986873962666,-0.3197681283413333,0.7907141896384,-0.0881562461568,-0.0022037531733333,-9.803249313021867,0.1227848554965354,359.5132723530364,132.3647671269023,0.00141,0.001409,0.011751,-0.403818,-0.004319,0.000735,-0.914829,0.00141,0.001409,0.011751,2.24003,0.0,0.0,0.00098875,0.0,0.0,0.0002735,0.0,0.0,0.0,-6.786368710890173
2023-09-08 15:34:45.545,-0.0250145008128,0.0149420532772571,0.0038573565769142,0.0866060533668571,0.0866148390802285,0.0691954642194285,48.35925,-4.5573,48.417322214273824,50.787003,0.5835722176658286,0.5827537355081143,0.5745084138989714,-0.0773446275754666,-0.0112212487296,-9.798716251485867,-0.0142929363477333,-0.0027030616298666,0.0116888754474666,33.723376062432,-0.0777630647701333,-0.0118129359850666,-9.799121439089069,-0.0140858740224,-0.0025302491946666,0.0116982504149333,-0.314334,-0.331515,0.798232,-0.074645,-0.01336,-9.805084,337.3864512617882,359.49914536641853,132.5167262339057,0.0014146874986666,0.0014136874986666,0.0117603749973333,-0.4026123753429333,-0.0036027502037333,0.0026662494506666,-0.9153596248490666,0.0014146874986666,0.0014136874986666,0.0117603749973333,2.24003,0.0,0.0,0.00123568742976,0.0,0.0,0.00211737447552,0.0,0.0,0.0,-6.63440960388678
2023-09-08 15:34:45.560,-0.024824,0.015011,0.00399,0.086654,0.086663,0.069211,48.35925,-4.5573,48.417325,50.787003,0.58278,0.581965,0.573762,-0.076741,-0.011519,-9.798368,-0.014563,-0.002907,0.011584,33.723392,-0.077231,-0.012168,-9.798749,-0.014315,-0.002719,0.011601,-0.3143343750016,-0.331515,0.798232,-0.0751677522304,-0.0178060189696,-9.8040493705856,359.870798017198,359.49820356302445,132.5268568871448,0.001415,0.001414,0.011761,-0.402532,-0.003555,0.002795,-0.915395,0.001415,0.001414,0.011761,2.24003,0.0,0.0,0.00125215,0.0,0.0,0.0022403,0.0,0.0,0.0,-6.6242789506476925
2023-09-08 15:34:45.585,-0.0241221267967999,0.0156647483264,0.00423999936,0.0869827491584,0.0869917491584,0.0693822495616,48.35925,-4.5573,48.4172181252736,50.787003,0.5838106223616,0.5829918723712,0.57460574784,-0.0772116237952,-0.013450245056,-9.7984411248128,-0.0114323830144,-0.0026807505792,0.0116221249024,33.723545124607995,-0.0767478762368,-0.013049247744,-9.7985265005696,-0.011171258048,-0.0026165002624,0.0115216252031999,-0.314335,-0.331515,0.798232,-0.076039,-0.025216,-9.802325,359.8560443917428,359.4957684986289,132.54322195227354,0.0014168749952,0.0014158749952,0.011761,-0.4024020003328,-0.0035231250816,0.0029206246784,-0.9154518748544,0.0014168749952,0.0014158749952,0.011761,2.24003,0.0,0.0,0.00127958742976,0.0,0.0,0.00244517447552,0.0,0.0,0.0,-6.60791388551894
2023-09-08 15:34:45.600,-0.023701,0.016057,0.00439,0.08718,0.087189,0.069485,48.35925,-4.5573,48.417154,50.787003,0.584429,0.583608,0.575112,-0.077494,-0.014609,-9.798485,-0.009554,-0.002545,0.011645,33.723637,-0.076458,-0.013578,-9.798393,-0.009285,-0.002555,0.011474,-0.3167155101568,-0.3325766295296,0.798430750848,-0.07719212992,-0.0221492369152,-9.8015671217664,359.8471921560386,359.4943074500175,132.55304105838226,0.001418,0.001417,0.011761,-0.402324,-0.003504,0.002996,-0.915486,0.001418,0.001417,0.011761,2.24003,0.0,0.0,0.00129605,0.0,0.0,0.0025681,0.0,0.0,0.0,-6.598094779410218
2023-09-08 15:34:45.620,-0.0231685,0.0164705,0.0045205,0.0863734999999999,0.086382,0.0690755,48.35925,-4.5573,48.417281,50.787003,0.583628,0.582809,0.574708,-0.07786,-0.012505,-9.798278,-0.0066029999999999,-0.0025174999999999,0.0116795,33.7236635,-0.077871,-0.0120369999999999,-9.797721500000002,-0.0062025,-0.002572,0.0117015,-0.3198895101568,-0.3339921295296,0.7986957508479999,-0.07872962992,-0.0180602369152,-9.8005566217664,359.8424939021185,359.4923020977346,132.567193115922,0.0014135,0.0014125,0.0117605,-0.402211,-0.0035035,0.0030405,-0.9155355,0.0014135,0.0014125,0.0117605,2.24003,0.0,0.0,0.001318,0.0,0.0,0.002732,0.0,0.0,0.0,-6.583942721870471
2023-09-08 15:34:45.625,-0.023035376704,0.0165738736768,0.0045531245824,0.0861718775808,0.0861802525824,0.0689731263104,48.35925,-4.5573,48.4173127495936,50.787003,0.5834277525632,0.5826092525568001,0.5746070012928,-0.0779514988288,-0.0119790067328,-9.7982262506624,-0.0058652594432,-0.002510625088,0.0116881248896,33.723670124915195,-0.0782242454784,-0.0116517549312,-9.7975536271488,-0.005431884864,-0.0025762499456,0.011758374272,-0.320683,-0.334346,0.798762,-0.079114,-0.017038,-9.800304,359.84131935367293,359.491800766081,132.57073108502036,0.0014123750144,0.0014113750144,0.0117603750016,-0.4021827503616,-0.0035033750016,0.0030516248576,-0.9155478748416,0.0014123750144,0.0014113750144,0.0117603750016,2.24003,0.0,0.0,0.0013283082013866,0.0,0.0,0.0027117085930666,0.0,0.0,0.0,-6.580404752772125
2023-09-08 15:34:45.640,-0.022636,0.016884,0.004651,0.085567,0.085575,0.068666,48.35925,-4.5573,48.417408,50.787003,0.582827,0.58201,0.574304,-0.078226,-0.010401,-9.798071,-0.003652,-0.00249,0.011714,33.72369,-0.079284,-0.010496,-9.79705,-0.00312,-0.002589,0.011929,-0.3192283687936,-0.3356138804096,0.8047035253504,-0.0737623521664,-0.0149019908864,-9.7968101100928,359.83779564819844,359.49029674545164,132.58134517346176,0.001409,0.001408,0.01176,-0.402098,-0.003503,0.003085,-0.915585,0.001409,0.001408,0.01176,2.24003,0.0,0.0,0.0013592333333333,0.0,0.0,0.0026508333333333,0.0,0.0,0.0,-6.569790664330725
2023-09-08 15:34:45.665,-0.0219416267776,0.0177346228224,0.0049903741312,0.0858944991616,0.0859024991615999,0.0688391245568,48.35925,-4.5573,48.4173030002688,50.787003,0.5838369974144,0.5830156224256,0.5751377478656,-0.0750228832,-0.0112716227712,-9.7928753883008,0.0003873646592,-0.0021018759936,0.0117464999168,33.7240787490048,-0.0746096369664,-0.0115572472832,-9.7922318873344,0.0007931149824,-0.0020565013632,0.0117277505152,-0.316804,-0.337727,0.814606,-0.064843,-0.011342,-9.790987,359.8408394786929,359.4890434034833,132.5983190046894,0.0014108749952,0.0014098749951999,0.0117593750016,-0.4019623753472,-0.0035242499456,0.0030643750528,-0.915644374848,0.0014108749952,0.0014098749951999,0.0117593750016,2.24003,0.0,0.0,0.0014107748680533,0.0,0.0,0.0025493752597333,0.0,0.0,0.0,-6.552816833103094
2023-09-08 15:34:45.680,-0.021525,0.018245,0.005194,0.086091,0.086099,0.068943,48.35925,-4.5573,48.41724,50.787003,0.584443,0.583619,0.575638,-0.073101,-0.011794,-9.789758,0.002811,-0.001869,0.011766,33.724312,-0.071805,-0.012194,-9.789341,0.003141,-0.001737,0.011607,-0.3181941309311999,-0.3364703696384,0.8101761060992,-0.0675002613376,-0.0080648610176,-9.798485156992,359.8426657894571,359.48829139316865,132.60850337295096,0.001412,0.001411,0.011759,-0.401881,-0.003537,0.003052,-0.91568,0.001412,0.001411,0.011759,2.24003,0.0,0.0,0.0014417,0.0,0.0,0.0024885,0.0,0.0,0.0,-6.5426324648415175
2023-09-08 15:34:45.705,-0.0213189290989714,0.0185357135414857,0.0049035543149714,0.0862517138742857,0.0862597138742857,0.0690288926372571,48.35925,-4.5573,48.41714848237714,50.78709219620023,0.5852203194386286,0.5843931944466285,0.5763163911204571,-0.0706585062528,-0.0113671260928,-9.7980367288064,0.0067284899712,-0.0013883762304,0.0117272500992,33.7238470011904,-0.0707262527616,-0.010769003648,-9.7987547259008,0.007278489408,-0.0012438762624,0.0116957497728,-0.320511,-0.334376,0.802793,-0.071929,-0.002603,-9.810982,359.8551633993695,359.48814815408656,132.6251907260144,0.0014138749952,0.0014128749951999,0.011759,-0.4017472503424,-0.0035826248832,0.002952000256,-0.9157387498496,0.0014138749952,0.0014128749951999,0.011759,2.24003,0.0,0.0,0.00149324153472,0.0,0.0,0.0023870419264,0.0,0.0,0.0,-6.525945111778071
2023-09-08 15:34:45.720,-0.0211952857142857,0.0187101428571428,0.0047292857142857,0.0863481428571428,0.0863561428571428,0.0690804285714285,48.35925,-4.5573,48.41709357142857,50.787145714285714,0.5856867142857143,0.5848577142857143,0.5767234285714286,-0.069193,-0.011111,-9.803004,0.009079,-0.0011,0.011704,33.723568,-0.070079,-0.009914,-9.804403,0.009761,-0.000948,0.011749,-0.3205332500949333,-0.3341773741525333,0.8022898103530667,-0.0719085624128,-0.0036050042751999,-9.811577002538666,359.8626620165072,359.4880622100506,132.63520320620404,0.001415,0.001414,0.011759,-0.401667,-0.00361,0.002892,-0.915774,0.001415,0.001414,0.011759,2.24003,0.0,0.0,0.0015241666666666,0.0,0.0,0.0023261666666666,0.0,0.0,0.0,-6.515932631588441
2023-09-08 15:34:45.945,-0.0193406433846857,0.0213265706843428,0.0021152686006857,0.0877945710171428,0.0878025710171428,0.0698534640658285,48.35925,-4.5573,48.41626991094857,50.78794848191451,0.5926826051529144,0.5918254801609143,0.5828289625490285,-0.0739395611498666,-0.0147081864767999,-9.818303995648,0.0251421204309333,-0.0010550000128,0.0128899371626666,33.723081437638406,-0.0729955616704,-0.0159589982805333,-9.818405496017066,0.0248397457109333,-0.0011476874432,0.0129414996608,-0.320867,-0.331198,0.794742,-0.071602,-0.018635,-9.820502,22.653247536010326,359.49359483218615,132.7938766604593,0.0014206249984,0.0014205624981333,0.0117674374976,-0.4003882503637334,-0.0045840622229333,0.0005445006677333,-0.9163336873408,0.0014206249984,0.0014205624981333,0.0117674374976,2.24003,0.0,0.0,0.00198804153472,0.0,0.0,0.0014130419264,0.0,0.0,0.0,-6.357259177333191
2023-09-08 15:34:45.960,-0.019217,0.021501,0.001941,0.087891,0.087899,0.069905,48.35925,-4.5573,48.416215,50.788002,0.593149,0.59229,0.583236,-0.074256,-0.014948,-9.819324,0.026213,-0.001052,0.012969,33.723049,-0.07319,-0.016362,-9.819339,0.025845,-0.001161,0.013021,-0.3183623643136,-0.328989240576,0.7975702620671999,-0.079190157376,-0.0160568639999999,-9.8209096267392,0.1725175921138908,359.49396367534047,132.8044549388857,0.001421,0.001421,0.011768,-0.400303,-0.004649,0.000388,-0.916371,0.001421,0.001421,0.011768,2.24003,0.0,0.0,0.0020189666666666,0.0,0.0,0.0013521666666666,0.0,0.0,0.0,-6.346680898906783
2023-09-08 15:34:45.985,-0.0196344989312,0.0208566266496,0.0016549590656,0.087839958464,0.0878475417984,0.0698835417216,48.35925,-4.5573,48.4166049990016,50.7877938755328,0.593606290496,0.5927449988351999,0.5837064154624,-0.0802572346368,-0.0140861272064,-9.8195214994944,0.024356754752,-0.0016669984256,0.0133777489536,33.7230702499456,-0.080930605184,-0.0141257557248,-9.8205658718592,0.0240912544896,-0.0017472484992,0.0133634991232,-0.314188,-0.325308,0.802284,-0.091837,-0.01176,-9.821589,0.2040301901736285,359.4920657575028,132.82436517129617,0.0014228749951999,0.0014222499968,0.011768,-0.4001423754112,-0.0047746246784,0.0001417506304,-0.9164403748224,0.0014228749951999,0.0014222499968,0.011768,2.24003,0.0,0.0,0.0020705082013866,0.0,0.0,0.0012507085930666,0.0,0.0,0.0,-6.326770666496316
2023-09-08 15:34:46.000,-0.019885,0.02047,0.0014833333333333,0.0878093333333333,0.0878166666666666,0.0698706666666666,48.35925,-4.5573,48.416839,50.787669,0.5938806666666667,0.5930179999999999,0.5839886666666666,-0.083858,-0.013569,-9.81964,0.023243,-0.002036,0.013623,33.723083,-0.085575,-0.012784,-9.821302,0.023039,-0.002099,0.013569,-0.3141304372544,-0.3235653675648,0.803801818976,-0.0903478686464,-0.013937821792,-9.8214854995584,0.2229378780854033,359.49092699902627,132.83631139229496,0.001424,0.001423,0.011768,-0.400046,-0.00485,-6e-06,-0.916482,0.001424,0.001423,0.011768,2.24003,0.0,0.0,0.0021014333333333,0.0,0.0,0.0011898333333333,0.0,0.0,0.0,-6.314824445497521
2023-09-08 15:34:46.065,-0.0209704989312,0.0187946266496,0.0007396257322666,0.0876766251306666,0.0876828751317333,0.0698148750549333,48.35925,-4.5573,48.4178529990016,50.7871278755328,0.5950696238293334,0.5942009988352,0.5852117487957333,-0.0860980602944,-0.0127621882944,-9.8182888138304,0.0157834448448,-0.0028509366976,0.0140788120512,33.7227856252928,-0.0867766863168,-0.0121071881664,-9.8177156285312,0.0153300075904,-0.0029049992064,0.014174311904,-0.313881,-0.316014,0.810379,-0.083895,-0.023375,-9.821037,0.2794994997319766,359.48296647449826,132.88872981696494,0.0014207500032,0.0014197500032,0.0117663750016,-0.3996243129152,-0.0051108122432,-0.00043256208,-0.91666481232,0.0014207500032,0.0014197500032,0.0117663750016,2.24003,0.0,0.0,0.00223544153472,0.0,0.0,0.0009260419264,0.0,0.0,0.0,-6.262406020827541
2023-09-08 15:34:46.080,-0.021221,0.018408,0.000568,0.087646,0.087652,0.069802,48.35925,-4.5573,48.418087,50.787003,0.595344,0.594474,0.585494,-0.086615,-0.012576,-9.817977,0.014062,-0.003039,0.014184,33.722717,-0.087054,-0.011951,-9.816888,0.013551,-0.003091,0.014314,-0.3161148845312,-0.3229417795584,0.8135800136575999,-0.0848565041023999,-0.0167404716928,-9.8165474808448,0.2925522501937984,359.4811294207296,132.9008264400267,0.00142,0.001419,0.011766,-0.399527,-0.005171,-0.000531,-0.916707,0.00142,0.001419,0.011766,2.24003,0.0,0.0,0.0022663666666666,0.0,0.0,0.0008651666666666,0.0,0.0,0.0,-6.25030939776579
2023-09-08 15:34:46.105,-0.0218557900416,0.0176365436416,0.0006215415296,0.0879757908224,0.0879819991552,0.069971791232,48.35925,-4.5573,48.4180767916928,50.787003,0.59641691392,0.5955427472639999,0.5863650394368,-0.08647437536,-0.0125097501696,-9.8136263861376,0.0106245088,-0.0030290000256,0.0142921247232,33.7221163765376,-0.0866427510528,-0.0123347490176,-9.812313011712,0.0101722586496,-0.0030260001664,0.0143883748096,-0.319838,-0.334488,0.818915,-0.086459,-0.005683,-9.809065,0.3027222250221682,359.47794235115305,132.92199001440545,0.0014212499968,0.0014208749952,0.0117653750016,-0.3993570004352,-0.0052316248448,-0.0006022498176,-0.9167807498112,0.0014212499968,0.0014208749952,0.0117653750016,2.24003,0.0,0.0,0.0023179082013866,0.0,0.0,0.0007637085930666,0.0,0.0,0.0,-6.229145823387029
2023-09-08 15:34:46.120,-0.0222366666666666,0.0171736666666666,0.0006536666666666,0.0881736666666666,0.08818,0.0700736666666666,48.35925,-4.5573,48.418070666666665,50.787003,0.5970606666666667,0.5961839999999999,0.5868876666666666,-0.08639,-0.01247,-9.811016,0.008562,-0.003023,0.014357,33.721756,-0.086396,-0.012565,-9.809568,0.008145,-0.002987,0.014433,-0.3211640056576,-0.332658929696,0.8159995500607999,-0.0864916251392,-0.0076806335232,-9.8069147408256,0.3088242515755137,359.4760300963529,132.93468824571892,0.001422,0.001422,0.011765,-0.399255,-0.005268,-0.000645,-0.916825,0.001422,0.001422,0.011765,2.24003,0.0,0.0,0.0023488333333333,0.0,0.0,0.0007028333333333,0.0,0.0,0.0,-6.216447592073564
2023-09-08 15:34:46.185,-0.0238871233749333,0.0151678769749333,0.0007928748629333,0.0890311241557333,0.0890379991552,0.0705151245653333,48.35925,-4.5573,48.418044125026135,50.787003,0.5998502472533334,0.598962747264,0.5891523727701333,-0.0862020418517333,-0.0135798739072,-9.802950049608532,-0.0018325730986666,-0.0016764179925333,0.0142665417557333,33.721406625344,-0.086241625152,-0.0143925815338666,-9.8021758822784,-0.0022506564309333,-0.0014730431573333,0.0142943334698666,-0.32691,-0.324733,0.803366,-0.086633,-0.016337,-9.797597,0.297884349446341,359.4688144162251,132.98608250933853,0.0014268749952,0.001426062496,0.0117698749952,-0.3988438754048,-0.0052874999808,-0.0005345001088,-0.917003749824,0.0014268749952,0.001426062496,0.0117698749952,2.24003,0.0,0.0,0.00248284153472,0.0,0.0,0.0004390419263999,0.0,0.0,0.0,-6.165053328453951
2023-09-08 15:34:46.200,-0.024268,0.014705,0.000825,0.089229,0.089236,0.070617,48.35925,-4.5573,48.418038,50.787003,0.600494,0.599604,0.589675,-0.0861586666666666,-0.013836,-9.801088666666669,-0.0042313333333333,-0.0013656666666666,0.0142456666666666,33.721326,-0.0862059999999999,-0.0148143333333333,-9.80047,-0.0046496666666666,-0.0011236666666666,0.0142623333333333,-0.3269235000576,-0.3212252350336,0.8033780000512,-0.0870518767872,-0.015993873536,-9.796080118528,0.2953597433899393,359.46714925052834,132.99794278630137,0.001428,0.001427,0.011771,-0.398749,-0.005292,-0.000509,-0.917045,0.001428,0.001427,0.011771,2.24003,0.0,0.0,0.0025137666666666,0.0,0.0,0.0003781666666666,0.0,0.0,0.0,-6.153193051491115
2023-09-08 15:34:46.220,-0.024906,0.0144645,0.0008525,0.088546,0.0885525,0.070279,48.35925,-4.5573,48.418450500000006,50.787003,0.5998334999999999,0.5989455,0.589391,-0.0861008333333333,-0.0141775,-9.798606833333332,-0.0074296666666666,-0.0009513333333333,0.0142178333333333,33.7212185,-0.0861585,-0.0153766666666666,-9.7981955,-0.0078483333333333,-0.0006578333333333,0.0142196666666666,-0.3269415000576,-0.3165482350336,0.8033940000512,-0.0876103767871999,-0.015536373536,-9.794057618528,0.2814941647477734,359.46760761676444,133.01424343557284,0.001424,0.0014235,0.0117705,-0.398619,-0.00524,-0.0004005,-0.9171015,0.001424,0.0014235,0.0117705,2.24003,0.0,0.0,0.002555,0.0,0.0,0.000297,0.0,0.0,0.0,-6.136892402219644
2023-09-08 15:34:46.225,-0.0250654979584,0.0144043757696,0.000859374912,0.0883752521856,0.0883816271872,0.0701945010816,48.35925,-4.5573,48.418553623680005,50.787003,0.5996683771136,0.5987808771072001,0.5893200009088,-0.0860863751850666,-0.0142628739072,-9.797986382941868,-0.0082292397653333,-0.0008477513258666,0.0142108750890666,33.721191625344,-0.086146625152,-0.0155172482005333,-9.7976268822784,-0.0086479897642666,-0.0005413764906666,0.0142090001365333,-0.326946,-0.315379,0.803398,-0.08775,-0.015422,-9.793552,0.2780278144570836,359.4677222068567,133.01831854572862,0.0014230000128,0.0014226250112,0.0117703750016,-0.398586500416,-0.0052270001663999,-0.0003733753472,-0.9171156248192,0.0014230000128,0.0014226250112,0.0117703750016,2.24003,0.0,0.0,0.00254915007488,0.0,0.0,0.00029739999488,0.0,0.0,0.0,-6.132817292063862
2023-09-08 15:34:46.240,-0.025544,0.014224,0.00088,0.087863,0.087869,0.069941,48.35925,-4.5573,48.418863,50.787003,0.599173,0.598287,0.589107,-0.086043,-0.014519,-9.796125,-0.010628,-0.000537,0.01419,33.721111,-0.086111,-0.015939,-9.795921,-0.011047,-0.000192,0.014177,-0.322087854272,-0.3226191558912,0.8044787546112,-0.0825134776576,-0.0203412709888,-9.7954240079872,0.2676285861056075,359.46806598300054,133.0305440848443,0.00142,0.00142,0.01177,-0.398489,-0.005188,-0.000292,-0.917158,0.00142,0.00142,0.01177,2.24003,0.0,0.0,0.0025316,0.0,0.0,0.0002986,0.0,0.0,0.0,-6.120591752948172
2023-09-08 15:34:46.265,-0.0259152490496,0.0138346259968,0.0009668747776,0.0881923741568,0.0881983741568,0.0701109995648,48.35925,-4.5573,48.4189198748544,50.787003,0.6002417472639999,0.5993513722752,0.5899769977728,-0.0845705037696,-0.0161858707328,-9.7953225020544,-0.0140929911296,0.0001923731327999,0.0139956254976,33.721242249664,-0.0839972554112,-0.0169258724735999,-9.7951353770112,-0.0144794912128,0.0003217486848,0.013936375616,-0.313991,-0.334686,0.80628,-0.073786,-0.02854,-9.798544,0.2424543174283397,359.47003552037927,133.05177927876412,0.0014218749952,0.0014218749952,0.0117693750016,-0.398320250432,-0.005084875264,-9.825049599999996e-05,-0.9172317498112,0.0014218749952,0.0014218749952,0.0117693750016,2.24003,0.0,0.0,0.00250235007488,0.0,0.0,0.00030059999488,0.0,0.0,0.0,-6.099356559028365
2023-09-08 15:34:46.280,-0.026138,0.013601,0.001019,0.08839,0.088396,0.070213,48.35925,-4.5573,48.418954,50.787003,0.600883,0.59999,0.590499,-0.083687,-0.017186,-9.794841,-0.016172,0.00063,0.013879,33.721321,-0.082729,-0.017518,-9.794664,-0.016539,0.00063,0.013792,-0.3140558752768,-0.334674749952,0.8047683685504,-0.0756370078976,-0.0231486019968,-9.79968775488,0.2273496531079106,359.47121725087374,133.0645204820956,0.001423,0.001423,0.011769,-0.398219,-0.005023,1.8e-05,-0.917276,0.001423,0.001423,0.011769,2.24003,0.0,0.0,0.0024848,0.0,0.0,0.0003018,0.0,0.0,0.0,-6.0866153556968925
2023-09-08 15:34:46.305,-0.026506749056,0.0132672508544,0.0008546254208,0.0887193741568,0.0887253741568,0.0703823745664,48.35925,-4.5573,48.4189596249856,50.787003,0.6019629972352,0.6010656222464,0.5913752477568001,-0.0822388787072,-0.017610998912,-9.7955116232832,-0.0190507426304,0.001601872512,0.0137302503808,33.721227875238405,-0.0811983789184,-0.0168511267072,-9.794942124288,-0.0193371178368,0.0017287471872,0.0136663753216,-0.314164,-0.334656,0.802249,-0.078722,-0.014163,-9.801594,0.195765435507128,359.47576509173007,133.0832489920788,0.0014248749952,0.0014242499968,0.011769,-0.3980708753792,-0.0048767503744,0.0002542493951999,-0.917341624832,0.0014248749952,0.0014242499968,0.011769,2.24003,0.0,0.0,0.00245555007488,0.0,0.0,0.00030379999488,0.0,0.0,0.0,-6.067886845713673
2023-09-08 15:34:46.320,-0.026728,0.013067,0.000756,0.088917,0.088923,0.070484,48.35925,-4.5573,48.418963,50.787003,0.602611,0.601711,0.591901,-0.08137,-0.017866,-9.795914,-0.020778,0.002185,0.013641,33.721172,-0.08028,-0.016451,-9.795109,-0.021016,0.002388,0.013591,-0.315377130176,-0.3287568498304,0.8023712505216,-0.076196364224,-0.016021132928,-9.8033651325568,0.176814775577372,359.4784938148719,133.0944861747809,0.001426,0.001425,0.011769,-0.397982,-0.004789,0.000396,-0.917381,0.001426,0.001425,0.011769,2.24003,0.0,0.0,0.002438,0.0,0.0,0.000305,0.0,0.0,0.0,-6.056649663011569
2023-09-08 15:34:46.345,-0.0269411244544,0.013042000064,0.0005291255808,0.0892469991552,0.0892523741568,0.070652749568,48.35925,-4.5573,48.418987999936,50.787003,0.6037034972032,0.6027991222144,0.5927834977408,-0.0763281379072,-0.016228504192,-9.796701497984,-0.0227854948608,0.0029087481472,0.0134922503808,33.720940750592,-0.0765368845824,-0.0159653762432,-9.7967133708928,-0.0230841197056,0.0029523735552,0.0135235001728,-0.317399,-0.318925,0.802575,-0.071987,-0.019118,-9.806317,0.1404678584971063,359.484330807467,133.11368021178092,0.0014278749951999,0.0014268749952,0.0117727499904,-0.3978301253888,-0.0046165004416,0.0006659993087999,-0.9174472498304,0.0014278749951999,0.0014268749952,0.0117727499904,2.24003,0.0,0.0,0.00241716672,0.0,0.0,0.00013325043968,0.0,0.0,0.0,-6.037455626011564
2023-09-08 15:34:46.360,-0.027069,0.013027,0.000393,0.089445,0.08945,0.070754,48.35925,-4.5573,48.419003,50.787003,0.604359,0.603452,0.593313,-0.073303,-0.015246,-9.797174,-0.02399,0.003343,0.013403,33.720802,-0.074291,-0.015674,-9.797676,-0.024325,0.003291,0.013483,-0.31854275488,-0.315373734848,0.8041995069312,-0.0742208845312,-0.0126709724928,-9.8093578879744,0.1186595593715934,359.4878330269325,133.12519671259992,0.001429,0.001428,0.011775,-0.397739,-0.004513,0.000828,-0.917487,0.001429,0.001428,0.011775,2.24003,0.0,0.0,0.0024046666666666,0.0,0.0,3.020000000000003e-05,0.0,0.0,0.0,-6.025939125192565
2023-09-08 15:34:46.385,-0.02672137588992,0.0132444994432,5.187587328000002e-05,0.08941075008768,0.0894162500864,0.070713375104,48.35925,-4.5573,48.41897850006272,50.78712787468032,0.60205325590272,0.60115625587712,0.59117263047936,-0.076824865984,-0.0122091327744,-9.7996752435968,-0.0248624977664,0.003996123328,0.0129273762176,33.7198963773184,-0.0772309924735999,-0.0117608850176,-9.80044161792,-0.0249962482816,0.0040578730368,0.0129605013376,-0.320449,-0.309455,0.806907,-0.077944,-0.001926,-9.814426,0.0808086319293857,359.4954246982833,133.14378198350107,0.0014308749951999,0.0014298749952,0.011775,-0.3975915003776,-0.0043205004928,0.0011036242944,-0.9175513748352,0.0014308749951999,0.0014298749952,0.011775,2.24003,0.0,0.0,0.0023838333866666,0.0,0.0,-0.0001415495603199,0.0,0.0,0.0,-6.007353854291409
2023-09-08 15:34:46.400,-0.0265128,0.013375,-0.0001528,0.0893902,0.089396,0.070689,48.35925,-4.5573,48.4189638,50.7872028,0.6006698,0.5997788,0.5898884,-0.078938,-0.010387,-9.801176,-0.025386,0.004388,0.012642,33.719353,-0.078995,-0.009413,-9.802101,-0.025399,0.004518,0.012647,-0.3211480029824,-0.3103603288627199,0.8072670015360001,-0.07853290251264,-0.00204705051648,-9.81455230053888,0.0580979204262654,359.49997973218933,133.15493322216722,0.001432,0.001431,0.011775,-0.397503,-0.004205,0.001269,-0.91759,0.001432,0.001431,0.011775,2.24003,0.0,0.0,0.0023713333333333,0.0,0.0,-0.0002445999999999,0.0,0.0,0.0,-5.996202615625265
2023-09-08 15:34:46.560,-0.024288,0.014767,-0.002336,0.089171,0.08918,0.070429,48.35925,-4.5573,48.418807,50.788002,0.585913,0.585086,0.57619,-0.0794387999999999,-0.0078654,-9.8125712,-0.0138027999999999,0.0023904,0.011722,33.7195362,-0.0800462,-0.0074626,-9.812685,-0.0133366,0.0022276,0.0117558,-0.3286040029824,-0.32001712886272,0.811107001536,-0.08481450251264,-0.00333825051648,-9.81589950053888,287.87108449609553,359.5402242877193,133.26402438636012,0.0014328,0.0014318,0.0117781999999999,-0.396628,-0.00313,0.002776,-0.91797,0.00143,0.001429,0.011779,2.24003,0.0,0.0,0.002238,0.0,0.0,-0.0013438,0.0,0.0,0.0,-5.887111451432361
2023-09-08 15:34:46.585,-0.023353627392,0.0152332488064,-0.0025397494783999,0.089502249152,0.0895118741504,0.0705983745664,48.35925,-4.5573,48.41883824992,50.788002,0.58699112224,0.5861603722496,0.5770568727808,-0.07951704979968,-0.00747140100864,-9.81435169544192,-0.0119929296332799,0.00207827579904,0.011578250368,33.71956482492672,-0.08021044957952,-0.00715785078016,-9.8143387457664,-0.0114518548249599,0.00186972591616,0.01161655035648,-0.329769,-0.321526,0.811707,-0.085796,-0.00354,-9.81611,332.8417485233492,359.54651248342304,133.2810698371288,0.00143292499968,0.0014319249996799,0.01177869999872,-0.396496750336,-0.0030456252159999,0.0028928747007999,-0.918026249856,0.0014318749952,0.0014308749951999,0.011779,2.24003,0.0,0.0,0.0022171667199999,0.0,0.0,-0.00151554956032,0.0,0.0,0.0,-5.870066000663684
2023-09-08 15:34:46.600,-0.022793,0.015513,-0.002662,0.089701,0.089711,0.0707,48.35925,-4.5573,48.418857,50.788002,0.587638,0.586805,0.577577,-0.079564,-0.007235,-9.81542,-0.010907,0.001891,0.011492,33.719582,-0.080309,-0.006975,-9.815331,-0.010321,0.001655,0.011533,-0.3228584705152,-0.325311641152,0.8050390965504,-0.0854198733951999,-0.0085586464128,-9.816149375168,359.8243311400129,359.5502854266018,133.29129717740835,0.001433,0.001432,0.011779,-0.396418,-0.002995,0.002963,-0.91806,0.001433,0.001432,0.011779,2.24003,0.0,0.0,0.0022046666666666,0.0,0.0,-0.0016186,0.0,0.0,0.0,-5.859838660384128
2023-09-08 15:34:46.620,-0.022181,0.015829,-0.0026709999999999,0.088961,0.08897,0.0703385,48.35925,-4.5573,48.4191185,50.788002,0.586965,0.5861339999999999,0.577292,-0.0841365,-0.008175,-9.8147575,-0.007395,0.000688,0.011104,33.719843,-0.0839215,-0.0083235,-9.814306,-0.0069289999999999,0.000531,0.011174,-0.3136444705152,-0.330359141152,0.7961485965504,-0.0849183733951999,-0.0152501464128,-9.816201875168,359.81928911141574,359.5504859618301,133.30416007990902,0.0014285,0.001428,0.011778,-0.3963155,-0.0029765,0.0030025,-0.9181045,0.0014285,0.001428,0.011778,2.24003,0.0,0.0,0.002188,0.0,0.0,-0.001756,0.0,0.0,0.0,-5.846975757883456
2023-09-08 15:34:46.625,-0.0220280019584,0.0159079989888,-0.0026732499712,0.088776002368,0.0887847523712,0.0702481261568,48.35925,-4.5573,48.4191838741632,50.788002,0.5867967521536,0.5859662521472,0.577220750912,-0.085279610368,-0.008409996992,-9.81459187712,-0.0065170112384,0.0003872538495999,0.0110070012416,33.7199082491648,-0.08482461344,-0.0086606206848,-9.81404975328,-0.0060810108544,0.0002500035968,0.0110842511488,-0.311341,-0.331621,0.793926,-0.084793,-0.016923,-9.816215,359.8180286204009,359.55053609499544,133.30737576437292,0.0014273750144,0.0014270000127999,0.0117777500032,-0.396289875328,-0.0029718750592,0.0030123748736,-0.9181156248576,0.0014273750144,0.0014270000127999,0.0117777500032,2.24003,0.0,0.0,0.00219209994752,0.0,0.0,-0.0017123005593599,0.0,0.0,0.0,-5.84376007341956
2023-09-08 15:34:46.640,-0.021569,0.016145,-0.00268,0.088221,0.088229,0.069977,48.35925,-4.5573,48.41938,50.788002,0.586292,0.585463,0.577007,-0.088709,-0.009115,-9.814095,-0.003883,-0.000515,0.010716,33.720104,-0.087534,-0.009672,-9.813281,-0.003537,-0.000593,0.010815,-0.3111546242048,-0.3304843701504,0.7984646443648,-0.0781614717055999,-0.0163331224832,-9.8125021091584,359.8142470828186,359.5506864970584,133.31702298240972,0.001424,0.001424,0.011777,-0.396213,-0.002958,0.003042,-0.918149,0.001424,0.001424,0.011777,2.24003,0.0,0.0,0.0022044,0.0,0.0,-0.0015812,0.0,0.0,0.0,-5.834112855382756
2023-09-08 15:34:46.665,-0.0205546275968,0.0167124985472,-0.0023931257344,0.0885516241535999,0.088560249152,0.0701469995648,48.35925,-4.5573,48.4193718750208,50.788002,0.5873526222848,0.586519247296,0.5778657478016,-0.0828271400576,-0.01142749408,-9.8094912617856,0.0002807393407999,-0.0015306223999999,0.011159748864,33.71982275072,-0.0821671387392,-0.011146996224,-9.808402887488,0.000850488768,-0.0016042474111999,0.0111668740992,-0.310844,-0.32859,0.806029,-0.067109,-0.01535,-9.806314,359.81779225010035,359.54875276945023,133.33270766189855,0.0014258749952,0.0014258749952,0.011777,-0.3960873753216,-0.002986124928,0.003020125056,-0.9182033748608,0.0014258749952,0.0014258749952,0.011777,2.24003,0.0,0.0,0.0022248999475199,0.0,0.0,-0.0013627005593599,0.0,0.0,0.0,-5.818428175893928
2023-09-08 15:34:46.680,-0.019946,0.017053,-0.002221,0.08875,0.088759,0.070249,48.35925,-4.5573,48.419367,50.788002,0.587989,0.587153,0.578381,-0.079298,-0.012815,-9.806729,0.002779,-0.00214,0.011426,33.719654,-0.078947,-0.012032,-9.805476,0.003483,-0.002211,0.011378,-0.3134270110208,-0.3261123644288,0.8017059815552,-0.0746589072128,-0.0149157481472,-9.804461492096,359.8199193649904,359.5475925249647,133.34211853383647,0.001427,0.001427,0.011777,-0.396012,-0.003003,0.003007,-0.918236,0.001427,0.001427,0.011777,2.24003,0.0,0.0,0.0022372,0.0,0.0,-0.0012315999999999,0.0,0.0,0.0,-5.809017303956011
2023-09-08 15:34:46.705,-0.0188103779072,0.0176273735295999,-0.0018597509248,0.089081249152,0.0890902491519999,0.0704183745664,48.35925,-4.5573,48.4193488750464,50.788002,0.5890614972544,0.588221747264,0.579246622784,-0.0806642465023999,-0.0135949980032,-9.8085439953536,0.0078752369536,-0.0031762473471999,0.0113585001728,33.7198927493888,-0.0815051184512,-0.0136919957504,-9.8076003695616,0.0084836121984,-0.0033466220928,0.0113148751616,-0.317732,-0.321983,0.794501,-0.087242,-0.014192,-9.801374,359.83492365883933,359.54304468410834,133.3578032133253,0.0014288749952,0.0014282499967999,0.0117763750016,-0.3958857503232,-0.0030917497727999,0.0029020002688,-0.9182903748608,0.0014288749952,0.0014282499967999,0.0117763750016,2.24003,0.0,0.0,0.0022576999475199,0.0,0.0,-0.00101310055936,0.0,0.0,0.0,-5.793332624467183
2023-09-08 15:34:46.720,-0.018129,0.017972,-0.001643,0.08928,0.089289,0.07052,48.35925,-4.5573,48.419338,50.788002,0.589705,0.588863,0.579766,-0.081484,-0.014063,-9.809633,0.010933,-0.003798,0.011318,33.720036,-0.08304,-0.014688,-9.808875,0.011484,-0.004028,0.011277,-0.317529499136,-0.3255218900992,0.7990227692928,-0.086066369984,-0.0112906126208,-9.804377762816,359.8439262966064,359.5403159609665,133.3672140852632,0.00143,0.001429,0.011776,-0.39581,-0.003145,0.002839,-0.918323,0.00143,0.001429,0.011776,2.24003,0.0,0.0,0.00227,0.0,0.0,-0.000882,0.0,0.0,0.0,-5.783921752529267
2023-09-08 15:34:46.745,-0.0171046276224,0.0182669992448,-0.0010948764032,0.0896118741504,0.089620249152,0.070688749568,48.35925,-4.5573,48.419313000064,50.788002,0.5907906222208,0.5899436222336,0.5806384977664,-0.0870408607744,-0.0131398773632,-9.805108011584,0.0149992395904,-0.0048079974144,0.0113273749759999,33.7193253768192,-0.0870349897728,-0.0135167529984,-9.8056493832576,0.0155014897152,-0.0049817475584,0.0113807497344,-0.317192,-0.33142,0.806559,-0.084107,-0.006455,-9.809384,359.8681337014796,359.53354791433776,133.38347172108038,0.0014318749952,0.0014308749951999,0.0117803749888,-0.395678750336,-0.0032831246464,0.0026677504384,-0.918379249856,0.0014318749952,0.0014308749951999,0.0117803749888,2.24003,0.0,0.0,0.002387549699072,0.0,0.0,-0.000453151097856,0.0,0.0,0.0,-5.767664116712098
2023-09-08 15:34:46.760,-0.01649,0.018444,-0.000766,0.089811,0.089819,0.07079,48.35925,-4.5573,48.419298,50.788002,0.591442,0.590592,0.581162,-0.090375,-0.012586,-9.802393,0.017439,-0.005414,0.011333,33.718899,-0.089432,-0.012814,-9.803714,0.017912,-0.005554,0.011443,-0.3161288704639999,-0.3314511251328,0.8034341116672,-0.0871718880768,-0.0058426223872,-9.802917097408,359.8826582435572,359.5294870586385,133.39322636916214,0.001433,0.001432,0.011783,-0.3956,-0.003366,0.002565,-0.918413,0.001433,0.001432,0.011783,2.24003,0.0,0.0,0.00245808,0.0,0.0,-0.0001958399999999,0.0,0.0,0.0,-5.757909468630345
2023-09-08 15:34:46.785,-0.0160212512,0.0183585002188799,-8.725173759999995e-05,0.08983324994304,0.08984112494336,0.07080662495744,48.35925,-4.5573,48.41962312416768,50.78787712531968,0.59204474845696,0.59119224846336,0.5817289985484799,-0.0872725079424,-0.0107403797247999,-9.7970736386176,0.0213039901056,-0.0058364989184,0.0112905001088,33.7188633750912,-0.0869020064768,-0.010864004992,-9.797223391616,0.0217282402304,-0.005828999296,0.0112961253759999,-0.314357,-0.331503,0.798226,-0.09228,-0.004822,-9.792139,359.9156032324379,359.52211024591094,133.40969886360242,0.0014348749952,0.0014338749952,0.0117823750016,-0.3954668753408,-0.0035391245568,0.0023256256128,-0.9184704998528,0.0014348749952,0.0014338749952,0.0117823750016,2.24003,0.0,0.0,0.002575629699072,0.0,0.0,0.0002330089021439,0.0,0.0,0.0,-5.741436974190066
2023-09-08 15:34:46.800,-0.01574,0.0183072,0.0003199999999999,0.0898466,0.0898544,0.0708166,48.35925,-4.5573,48.4198182,50.7878022,0.5924064,0.5915524,0.5820692,-0.085411,-0.009633,-9.793882,0.023623,-0.00609,0.011265,33.718842,-0.085384,-0.009694,-9.793329,0.024018,-0.005994,0.011208,-0.315206847376,-0.3303022448768,0.79944006768,-0.0913769961472,-0.0053428772224,-9.7916867480704,359.93537036070927,359.5176841280589,133.4195824277381,0.001436,0.001435,0.011782,-0.395387,-0.003643,0.002182,-0.918505,0.001436,0.001435,0.011782,2.24003,0.0,0.0,0.00264616,0.0,0.0,0.00049032,0.0,0.0,0.0,-5.731553410054374
2023-09-08 15:34:46.945,-0.0130212512,0.01781130021888,0.0042567482624,0.08997564994304,0.08998272494336,0.07091302495744,48.35925,-4.5573,48.42170392416768,50.78707792531968,0.59590234845696,0.5950338484633599,0.58535779854848,-0.082189282672,-0.0074643447071999,-9.7796556937792,0.0274346858176,-0.0060755000064,0.012085155888,33.7194954059616,-0.0805953771136,-0.0088801878592,-9.7789613188416,0.027448154736,-0.0060655937184,0.0121033746048,-0.323422,-0.318695,0.811176,-0.082648,-0.010378,-9.787315,33.91808319858109,359.4705888085791,133.51964051002864,0.0014332812512,0.0014331875008,0.0117856249984,-0.3945750003584,-0.0048229369792,0.0004764382527999,-0.9188502810976,0.0014332812512,0.0014331875008,0.0117856249984,2.24003,0.0,0.0,0.003327949699072,0.0,0.0,0.002977648902144,0.0,0.0,0.0,-5.631495327763844
2023-09-08 15:34:46.960,-0.01274,0.01776,0.004664,0.089989,0.089996,0.070923,48.35925,-4.5573,48.421899,50.787003,0.596264,0.595394,0.585698,-0.081856,-0.00724,-9.778184,0.027829,-0.006074,0.01217,33.719563,-0.0801,-0.008796,-9.777475,0.027803,-0.006073,0.012196,-0.3199007349759999,-0.321183135616,0.809351617216,-0.0769112255232,-0.0124540088576,-9.7856698679808,0.1919981571483388,359.4657168560405,133.52999139485988,0.001433,0.001433,0.011786,-0.394491,-0.004945,0.0003,-0.918886,0.001433,0.001433,0.011786,2.24003,0.0,0.0,0.00339848,0.0,0.0,0.0032349599999999,0.0,0.0,0.0,-5.621144442932604
2023-09-08 15:34:46.985,-0.0133246860032,0.0177081251328,0.0046333750783999,0.0894611888512,0.0894681888512,0.0706676881536,48.35925,-4.5573,48.4234764959616,50.7873151867008,0.5960052506624,0.5951355631616,0.5857173749504,-0.0781685094399999,-0.015196229632,-9.7797358710272,0.0254527560832,-0.0057777507584,0.0123093746432,33.7196173748608,-0.0784368792576,-0.0166628548608,-9.7801806180736,0.025168631744,-0.0059305003648,0.0122853747712,-0.314032,-0.32533,0.806311,-0.06735,-0.015914,-9.782928,0.22429857015957,359.4584474726244,133.54832599736733,0.0014348749952,0.0014348749952,0.0117853750016,-0.3943422503808,-0.0051149995648,6.50006016e-05,-0.9189491248384,0.0014348749952,0.0014348749952,0.0117853750016,2.24003,0.0,0.0,0.003516029699072,0.0,0.0,0.0036638089021439,0.0,0.0,0.0,-5.602809840425152
2023-09-08 15:34:47.000,-0.0136755,0.017677,0.0046149999999999,0.0891445,0.0891515,0.0705145,48.35925,-4.5573,48.424423,50.7875025,0.59585,0.5949804999999999,0.5857289999999999,-0.075956,-0.01997,-9.780667,0.024027,-0.0056,0.012393,33.71965,-0.077439,-0.021383,-9.781804,0.023588,-0.005845,0.012339,-0.3151585048063999,-0.3264553798016,0.8079193818624,-0.0701388868992,-0.0098659741952,-9.7850583840896,0.2436789502691391,359.4540858127993,133.55932683397054,0.001436,0.001436,0.011785,-0.394253,-0.005217,-7.6e-05,-0.918987,0.001436,0.001436,0.011785,2.24003,0.0,0.0,0.00358656,0.0,0.0,0.00392112,0.0,0.0,0.0,-5.591809003821936
2023-09-08 15:34:47.025,-0.0142601860032,0.0176251251328,0.0045843750784,0.0886166888512,0.0886236888512,0.0702591881536,48.35925,-4.5573,48.4260004959616,50.7878146867008,0.5955912506623999,0.5947220631615999,0.5857483749504,-0.074702878208,-0.017341881728,-9.782981369075198,0.020017635264,-0.0053206257152,0.0123011252352,33.719037501568,-0.0749627563391999,-0.0176517595519999,-9.7828139974144,0.01946301056,-0.0052643764864,0.0123258750336,-0.317036,-0.328331,0.8106,-0.074787,0.000214,-9.788609,0.266453964321404,359.44796234204,133.57787629510116,0.0014285000192,0.0014278750208,0.0117843750016,-0.3941036253824,-0.0053438746752,-0.0002384995839999,-0.9190507498368,0.0014285000192,0.0014278750208,0.0117843750016,2.24003,0.0,0.0,0.003704109699072,0.0,0.0,0.0043499689021439,0.0,0.0,0.0,-5.573259542691318
2023-09-08 15:34:47.040,-0.014611,0.017594,0.004566,0.0883,0.088307,0.070106,48.35925,-4.5573,48.426947,50.788002,0.595436,0.594567,0.58576,-0.073951,-0.015765,-9.78437,0.017612,-0.005153,0.012246,33.71867,-0.073477,-0.015413,-9.78342,0.016988,-0.004916,0.012318,-0.3171042502912,-0.3259838649856,0.8090977435904,-0.0797227710592,-0.0085355373311999,-9.7873062444416,0.2801190660394594,359.4442882345026,133.58900604775832,0.001424,0.001423,0.011784,-0.394014,-0.00542,-0.000336,-0.919089,0.001424,0.001423,0.011784,2.24003,0.0,0.0,0.00377464,0.0,0.0,0.00460728,0.0,0.0,0.0,-5.562129790034163
2023-09-08 15:34:47.065,-0.0154616228224,0.0171296261888,0.0048828741888,0.0886293741568,0.0886363741568,0.0702759995648,48.35925,-4.5573,48.4268070003584,50.788002,0.5965084972544,0.5956351222656,0.5866293727744,-0.0762316191616,-0.013465005888,-9.786023120768,0.012324513536,-0.0048936256639999,0.0123259997952,33.7199024968448,-0.075214495552,-0.0133173803648,-9.7853587450368,0.0117511384064,-0.0047510004224,0.012327374976,-0.317218,-0.322072,0.806594,-0.087949,-0.023118,-9.785135,0.2909694265077555,359.4387019103011,133.60612311806804,0.0014252499968,0.0014248749952,0.0117833750016,-0.3938758753535999,-0.0055024997888,-0.000404749824,-0.9191471248512,0.0014252499968,0.0014248749952,0.0117833750016,2.24003,0.0,0.0,0.003892189699072,0.0,0.0,0.005036128902144,0.0,0.0,0.0,-5.54501271972444
2023-09-08 15:34:47.080,-0.015972,0.016851,0.005073,0.088827,0.088834,0.070378,48.35925,-4.5573,48.426723,50.788002,0.597152,0.596276,0.587151,-0.0776,-0.012085,-9.787015,0.009152,-0.004738,0.012374,33.720642,-0.076257,-0.01206,-9.786522,0.008609,-0.004652,0.012333,-0.3174763761024,-0.3208596198272,0.8005523492224,-0.0796438395648,-0.0188714818816,-9.7899695206272,0.2974796872319234,359.43535009289855,133.61639343036558,0.001426,0.001426,0.011783,-0.393793,-0.005552,-0.000446,-0.919182,0.001426,0.001426,0.011783,2.24003,0.0,0.0,0.00396272,0.0,0.0,0.00529344,0.0,0.0,0.0,-5.534742407426904
2023-09-08 15:34:47.105,-0.0168576227328,0.0164656884864,0.005105812416,0.0891569991552,0.0891639991552,0.070546749568,48.35925,-4.5573,48.4266008128128,50.788002,0.5982426222080001,0.5973622472192,0.5880303727488,-0.074918756864,-0.012884997952,-9.7901262420352,0.0038388886016,-0.0042311262976,0.0123914999552,33.7210094990592,-0.0745620043392,-0.01295062272,-9.7906494894336,0.0031490139776,-0.0042251260928,0.0124411247232,-0.317907,-0.318839,0.790483,-0.065802,-0.011794,-9.798027,0.2957966280173693,359.4307664422717,133.63411926677418,0.0014278749951999,0.0014278749951999,0.011783,-0.3936505003648,-0.0055826249216,-0.0004172500736,-0.9192432498432,0.0014278749951999,0.0014278749951999,0.011783,2.24003,0.0,0.0,0.004080269699072,0.0,0.0,0.005722288902144,0.0,0.0,0.0,-5.517016571018303
2023-09-08 15:34:47.120,-0.017389,0.0162345,0.0051255,0.089355,0.089362,0.0706479999999999,48.35925,-4.5573,48.4265275,50.788002,0.598897,0.598014,0.5885579999999999,-0.07331,-0.013365,-9.791993,0.000651,-0.003927,0.012402,33.72123,-0.073545,-0.013485,-9.793126,-0.000127,-0.003969,0.012506,-0.3170831214848,-0.3200733177663999,0.7957185848384001,-0.0685650117887999,-0.0105369946368,-9.7994446935488,0.2947867855948086,359.4280162331209,133.64475484122454,0.001429,0.001429,0.011783,-0.393565,-0.005601,-0.0004,-0.91928,0.001429,0.001429,0.011783,2.24003,0.0,0.0,0.0041508,0.0,0.0,0.0059796,0.0,0.0,0.0,-5.506380996567941
2023-09-08 15:34:47.160,-0.018806,0.015618,0.005178,0.089883,0.08989,0.070918,48.35925,-4.5573,48.426332,50.788002,0.600642,0.599752,0.589965,-0.0752714999999999,-0.010641,-9.798983,-0.0084229999999999,-0.003299,0.0124135,33.721633999999995,-0.074819,-0.010687,-9.799838,-0.009128,-0.003375,0.0125065,-0.3148861214848,-0.3233648177663999,0.8096800848384,-0.0759330117887999,-0.0071849946368,-9.8032251935488,0.2613833461386815,359.422945556634,133.6730016605245,0.001432,0.0014315,0.011786,-0.39334,-0.005527,-0.000116,-0.9193765,0.001432,0.0014315,0.011786,2.24003,0.0,0.0,0.00433888,0.0,0.0,0.00666576,0.0,0.0,0.0,-5.478134177267975
2023-09-08 15:34:47.185,-0.01964974784,0.0152948758272,0.0049355006208,0.0902142491519999,0.0902206241536,0.0710854995712,48.35925,-4.5573,48.4262207502848,50.788002,0.60175137216,0.6008569971712,0.5908543727232,-0.0764974343616,-0.0089385043584,-9.803351738816,-0.0140942354815999,-0.0029065010048,0.0124206874816,33.721886499353595,-0.0756152479615999,-0.0089382544768,-9.8040329892608,-0.0147536105984,-0.0030037509504,0.0125068124992,-0.313513,-0.325422,0.818406,-0.080538,-0.00509,-9.805588,0.2405062499241052,359.4197763919428,133.69065587739206,0.0014338749952,0.0014330624959999,0.0117878749952,-0.39319937536,-0.0054807501184,6.149954560000004e-05,-0.9194368123456,0.0014338749952,0.0014330624959999,0.0117878749952,2.24003,0.0,0.0,0.004456429699072,0.0,0.0,0.007094608902144,0.0,0.0,0.0,-5.46047996040042
2023-09-08 15:34:47.200,-0.020156,0.015101,0.00479,0.090413,0.090419,0.071186,48.35925,-4.5573,48.426154,50.788002,0.602417,0.60152,0.591388,-0.077233,-0.007917,-9.805973,-0.017497,-0.002671,0.012425,33.722038,-0.076093,-0.007889,-9.80655,-0.018129,-0.002781,0.012507,-0.3160270107264,-0.3241248694656,0.8155904879872,-0.0786059917568,-0.0072260091136,-9.8108237723392,0.2279799066825545,359.4178748801471,133.70124847982447,0.001435,0.001434,0.011789,-0.393115,-0.005453,0.000168,-0.919473,0.001435,0.001434,0.011789,2.24003,0.0,0.0,0.00452696,0.0,0.0,0.0073519199999999,0.0,0.0,0.0,-5.449887357968009
2023-09-08 15:34:47.220,-0.0213674999999999,0.0151174999999999,0.0031615,0.0892485,0.0892545,0.0706135,48.35925,-4.5573,48.4317695,50.788002,0.6009990000000001,0.600106,0.5906305000000001,-0.0737049999999999,-0.010916,-9.807153,-0.0209929999999999,-0.0024425,0.0123685,33.722435,-0.074074,-0.010627,-9.8078975,-0.021536,-0.0024725,0.0124645,-0.3193790107263999,-0.3223953694656,0.8118364879872,-0.0760299917568,-0.0100740091136,-9.8178047723392,0.198415284453804,359.4160414152027,133.71640321350566,0.0014285,0.0014275,0.011788,-0.3929945,-0.0053665,0.000411,-0.919525,0.0014285,0.0014275,0.011788,2.24003,0.0,0.0,0.004621,0.0,0.0,0.007695,0.0,0.0,0.0,-5.434732624286824
2023-09-08 15:34:47.225,-0.0216703711232,0.0151216249472,0.0027543802112,0.0889573787264,0.0889633787264,0.070470376832,48.35925,-4.5573,48.4331733570304,50.788002,0.6006445045376,0.5997525045248,0.590441127424,-0.0728230112896,-0.0116657404032,-9.807447996224,-0.0218669888127999,-0.0023853757311999,0.0123543751808,33.722534248729595,-0.0735692564608,-0.0113114912384,-9.808234370688,-0.0223877390976,-0.0023953759872,0.012453875136,-0.320217,-0.321963,0.810898,-0.075386,-0.010786,-9.81955,0.1910242235034075,359.41558305483363,133.72019184843083,0.0014268750208,0.0014258750208,0.0117877500032,-0.3929643753856,-0.0053448752768,0.0004717492223999,-0.9195379998336,0.0014268750208,0.0014258750208,0.0117877500032,2.24003,0.0,0.0,0.00465019962624,0.0,0.0,0.00761560101632,0.0,0.0,0.0,-5.430943989361651
2023-09-08 15:34:47.240,-0.022579,0.015134,0.001533,0.088084,0.08809,0.070041,48.35925,-4.5573,48.437385,50.788002,0.599581,0.598692,0.589873,-0.070177,-0.013915,-9.808333,-0.024489,-0.002214,0.012312,33.722832,-0.072055,-0.013365,-9.809245,-0.024943,-0.002164,0.012422,-0.320155124736,-0.3208057450624,0.8124145064704,-0.0769130065152,-0.0085412404224,-9.817011239168,0.1688506622250536,359.41420795025823,133.73155794718687,0.001422,0.001421,0.011787,-0.392874,-0.00528,0.000654,-0.919577,0.001422,0.001421,0.011787,2.24003,0.0,0.0,0.0047378,0.0,0.0,0.0073773999999999,0.0,0.0,0.0,-5.419577890605609
2023-09-08 15:34:47.265,-0.0230371238272,0.0151571249408,0.0010430012544,0.0884133741567999,0.0884193741568,0.0702109995648,48.35925,-4.5573,48.43733812512,50.788002,0.6006528722560001,0.5997601222655999,0.5907442477696,-0.0755888611456,-0.012124379584,-9.8126992388224,-0.0276877418112,-0.0013946270976,0.012121375488,33.723013249535995,-0.0755899909504,-0.0111550056576,-9.8131937398912,-0.0280754919807999,-0.0013196271616,0.0121263757568,-0.320052,-0.318877,0.814942,-0.079458,-0.0048,-9.81278,0.1244465467772413,359.4141721404878,133.7487108272671,0.0014238749952,0.0014228749951999,0.011787,-0.3927383753471999,-0.0051281253888,0.0010096240896,-0.9196351248512,0.0014238749952,0.0014228749951999,0.011787,2.24003,0.0,0.0,0.00488379962624,0.0,0.0,0.00698040101632,0.0,0.0,0.0,-5.402425010525377
2023-09-08 15:34:47.280,-0.023312,0.015171,0.000749,0.088611,0.088617,0.070313,48.35925,-4.5573,48.43731,50.788002,0.601296,0.600401,0.591267,-0.078836,-0.01105,-9.815319,-0.029607,-0.000903,0.012007,33.723122,-0.077711,-0.009829,-9.815563,-0.029955,-0.000813,0.011949,-0.3177843653248,-0.3224691403264,0.8117027361792001,-0.0806246299776,-0.0100046472064,-9.8169886429568,0.0978038956288315,359.4141506544788,133.75900262557363,0.001425,0.001424,0.011787,-0.392657,-0.005037,0.001223,-0.91967,0.001425,0.001424,0.011787,2.24003,0.0,0.0,0.0049714,0.0,0.0,0.0067421999999999,0.0,0.0,0.0,-5.392133212218852
2023-09-08 15:34:47.305,-0.0233863748096,0.0155047491456,3.0251839999999915e-05,0.0889409991552,0.0889463741568,0.070481749568,48.35925,-4.5573,48.4373124999936,50.788002,0.6023797472256,0.6014803722368,0.5921451227519999,-0.0793153737728,-0.0129768700672,-9.8208977357184,-0.0310419963264,-0.0003073765247999,0.0117901255552,33.723122,-0.078751622336,-0.0132858661504,-9.8208873613696,-0.0312137467776,-0.0002623764096,0.011695875648,-0.314005,-0.328456,0.806304,-0.082569,-0.018679,-9.824003,0.0505349985392248,359.415403996447,133.77579740794866,0.0014268749952,0.0014258749952,0.0117863750016,-0.3925238753408,-0.00486512544,0.0015973740415999,-0.9197274998528,0.0014268749952,0.0014258749952,0.0117863750016,2.24003,0.0,0.0,0.00511739962624,0.0,0.0,0.0063452010163199,0.0,0.0,0.0,-5.375338429843822
2023-09-08 15:34:47.320,-0.023431,0.015705,-0.000401,0.089139,0.089144,0.070583,48.35925,-4.5573,48.437314,50.788002,0.60303,0.602128,0.592672,-0.079603,-0.014133,-9.824245,-0.031903,5e-05,0.01166,33.723122,-0.079376,-0.01536,-9.824082,-0.031969,6.8e-05,0.011544,-0.3176605155968,-0.324775359296,0.8051088699008,-0.0791047352192,-0.0126767243904,-9.8288045204864,0.0221734666715628,359.4161560067617,133.7858743461653,0.001428,0.001427,0.011786,-0.392444,-0.004762,0.001822,-0.919762,0.001428,0.001427,0.011786,2.24003,0.0,0.0,0.005205,0.0,0.0,0.006107,0.0,0.0,0.0,-5.365261491627194
2023-09-08 15:34:47.345,-0.0234453749632,0.0162431236224,-0.0012766227583999,0.0894689991552,0.0894746241536,0.070751749568,48.35925,-4.5573,48.4373489999104,50.788002,0.6041262471936,0.6032198722048,0.593556372736,-0.075971759296,-0.0115348816512,-9.8256024965248,-0.0316667506047999,0.0007331232512,0.011578750208,33.7226832511232,-0.0764516324864,-0.0114581349888,-9.826641368448,-0.031519001152,0.0009104978432,0.0114808751616,-0.323753,-0.318641,0.803117,-0.073331,-0.002673,-9.836807,224.97536705292703,359.4193430763382,133.80213198198246,0.0014292499968,0.0014288749952,0.0117903749888,-0.392315875328,-0.0045782504704,0.00218137408,-0.9198169998592,0.0014292499968,0.0014288749952,0.0117903749888,2.24003,0.0,0.0,0.00519991667968,0.0,0.0,0.00522516892416,0.0,0.0,0.0,-5.349003855810025
2023-09-08 15:34:47.360,-0.023454,0.016566,-0.001802,0.089667,0.089673,0.070853,48.35925,-4.5573,48.43737,50.788002,0.604784,0.603875,0.594087,-0.073793,-0.009976,-9.826417,-0.031525,0.001143,0.01153,33.72242,-0.074697,-0.009117,-9.828177,-0.031249,0.001416,0.011443,-0.3188487290752,-0.3212157609856,0.8057255111296,-0.0767146394368,-0.0052233858816,-9.8346874909568,359.9482046153201,359.42125533113835,133.8118866300642,0.00143,0.00143,0.011793,-0.392239,-0.004468,0.002397,-0.91985,0.00143,0.00143,0.011793,2.24003,0.0,0.0,0.0051968666666666,0.0,0.0,0.0046960666666666,0.0,0.0,0.0,-5.3392492077282725
2023-09-08 15:34:47.385,-0.0229402513152,0.01734199801344,-0.0031436215654399,0.08952050037504,0.08952687537408,0.07075337525504,48.35925,-4.5573,48.43972099398144,50.78787712531968,0.60219500662784,0.60129713159936,0.59165350622976,-0.0789204868736,-0.0134847410176,-9.828079495744,-0.0289712565376,0.0019117480319999,0.011242500736,33.7221362507264,-0.0786819897984,-0.0135438636672,-9.828342624576,-0.0286477566592,0.0020397484032,0.0112623754624,-0.310675,-0.325507,0.810073,-0.082354,-0.009474,-9.831155,359.90791862348243,359.42591060130627,133.82710578253625,0.0014318749952,0.0014318749952,0.0117923750016,-0.3921183753088,-0.0042936254464,0.0027038742143999,-0.9199012498688,0.0014318749952,0.0014318749952,0.0117923750016,2.24003,0.0,0.0,0.0051917833463466,0.0,0.0,0.0038142355908266,0.0,0.0,0.0,-5.32403005525623
2023-09-08 15:34:47.400,-0.022632,0.0178076,-0.0039486,0.0894326,0.0894392,0.0706936,48.35925,-4.5573,48.4411316,50.7878022,0.6006416,0.5997504,0.5901934,-0.081997,-0.01559,-9.829077,-0.027439,0.002373,0.01107,33.721966,-0.081073,-0.0162,-9.828442,-0.027087,0.002414,0.011154,-0.3123082569685333,-0.3250384980010666,0.8092022462848001,-0.0820834988458666,-0.0099160018858666,-9.829899244642132,359.88374686336795,359.42870378247505,133.83623733635727,0.001433,0.001433,0.011792,-0.392046,-0.004189,0.002888,-0.919932,0.001433,0.001433,0.011792,2.24003,0.0,0.0,0.0051887333333333,0.0,0.0,0.0032851333333333,0.0,0.0,0.0,-5.314898501435209
2023-09-08 15:34:47.505,-0.0204742513152,0.02106679801344,-0.00958342156544,0.08881730037504,0.08882547537408,0.07027517525504,48.35925,-4.5573,48.45100579398144,50.78727772531968,0.58976780662784,0.5889233315993601,0.57997270622976,-0.0816732501973333,-0.0108930028629333,-9.833747747153067,-0.0064801377749333,0.0057889979178666,0.0103735004245333,33.72246649969493,-0.0806337502677333,-0.0108957532330666,-9.833070747178668,-0.0057090130304,0.0057433729706666,0.0103866254677333,-0.323741,-0.321759,0.803107,-0.08019,-0.01301,-9.821109,359.8054379044496,359.46399796114247,133.90141124582834,0.0014251250048,0.0014242500053333,0.0117893750016,-0.3915253753173333,-0.0036395003349333,0.0033937496917333,-0.9201542498645332,0.0014251250048,0.0014242500053333,0.0117893750016,2.24003,0.0,0.0,0.0051673833463466,0.0,0.0,-0.0004185644091733,0.0,0.0,0.0,-5.249724591964139
2023-09-08 15:34:47.520,-0.020166,0.0215324,-0.0103883999999999,0.0887294,0.0887378,0.0702154,48.35925,-4.5573,48.4524164,50.7872028,0.5882144,0.5873766,0.5785126,-0.081627,-0.010222,-9.834415,-0.003486,0.006277,0.010274,33.722538,-0.080571,-0.010138,-9.833732,-0.002655,0.006219,0.010277,-0.3232373728512,-0.3223545025408,0.8007870526016,-0.080106562144,-0.0134324393024,-9.820132120832,359.7942508557685,359.4690400112523,133.9107218497243,0.001424,0.001423,0.011789,-0.391451,-0.003561,0.003466,-0.920186,0.001424,0.001423,0.011789,2.24003,0.0,0.0,0.0051643333333333,0.0,0.0,-0.0009476666666666,0.0,0.0,0.0,-5.240413988068184
2023-09-08 15:34:47.560,-0.019344,0.022774,-0.012535,0.088495,0.088504,0.070056,48.35925,-4.5573,48.456178,50.787003,0.584072,0.583252,0.574619,-0.078941,-0.0111799999999999,-9.828965,0.006657,0.0067655,0.009826,33.7229005,-0.07943,-0.0114075,-9.8288965,0.007391,0.0067305,0.0097705,-0.3218943728512,-0.3239425025408,0.7946005526016,-0.079884062144,-0.0145589393024,-9.817527120832,359.8086893922058,359.48645792822424,133.93306720373437,0.001427,0.001426,0.011796,-0.391271,-0.003471,0.00329,-0.920263,0.001427,0.001426,0.011796,2.24003,0.0,0.0,0.0051562,0.0,0.0,-0.0023585999999999,0.0,0.0,0.0,-5.218068634058113
2023-09-08 15:34:47.585,-0.0185171271167999,0.0235383730432,-0.0133018730368,0.0888268741504,0.0888358741504,0.0702259995648,48.35925,-4.5573,48.4565073741568,50.787003,0.5851338722816001,0.5843094972928,0.5754764978048,-0.0772622542976,-0.0117787484672,-9.82555875872,0.0129963587712,0.0070708117184,0.0095460007168,33.72312706192,-0.0787168768256,-0.0122009354688,-9.8258743202368,0.0136697339264,0.0070501866816,0.0094539383104,-0.321055,-0.324935,0.790734,-0.079745,-0.015263,-9.815899,359.83221641143905,359.4980602938735,133.94642424813924,0.0014282499967999,0.0014278749951999,0.0117953750016,-0.3911628752768,-0.003458500032,0.0030606255872,-0.92030987488,0.0014282499967999,0.0014278749951999,0.0117953750016,2.24003,0.0,0.0,0.00515111667968,0.0,0.0,-0.0032404310758399,0.0,0.0,0.0,-5.204711589653243
2023-09-08 15:34:47.600,-0.018021,0.023997,-0.013762,0.089026,0.089035,0.070328,48.35925,-4.5573,48.456705,50.787003,0.585771,0.584944,0.575991,-0.076255,-0.012138,-9.823515,0.0168,0.007254,0.009378,33.723263,-0.078289,-0.012677,-9.824061,0.017437,0.007242,0.009264,-0.3217971281664,-0.3249597501055999,0.8014174205824001,-0.0838516425216,-0.0133853669888,-9.8168605041024,359.8463327193459,359.50502176078646,133.95443852949276,0.001429,0.001429,0.011795,-0.391098,-0.003451,0.002923,-0.920338,0.001429,0.001429,0.011795,2.24003,0.0,0.0,0.0051480666666666,0.0,0.0,-0.0037695333333333,0.0,0.0,0.0,-5.196697308299719
2023-09-08 15:34:47.620,-0.0177005,0.024571,-0.0143784999999999,0.0879955,0.088004,0.0698175,48.35925,-4.5573,48.457416,50.7875025,0.5846665,0.5838425,0.575415,-0.07974,-0.012898,-9.821095,0.020815,0.006847,0.0095255,33.723768500000006,-0.0797145,-0.013372,-9.8207205,0.021329,0.006843,0.0095085,-0.3227866281663999,-0.3249927501055999,0.8156619205824001,-0.0893271425216,-0.0108818669887999,-9.8181425041024,359.87417846818926,359.5131864093671,133.96563985438758,0.0014234999999999,0.001423,0.0117945,-0.3910075,-0.0034805,0.0026715,-0.920377,0.0014234999999999,0.001423,0.0117945,2.24003,0.0,0.0,0.005144,0.0,0.0,-0.004475,0.0,0.0,0.0,-5.1854959834049055
2023-09-08 15:34:47.625,-0.0176203760255999,0.0247144981632,-0.0145326230272,0.0877378782975999,0.0877462532992,0.0696898766335999,48.35925,-4.5573,48.4575937477248,50.7876273734016,0.5843903785344,0.5835671285248,0.5752710018432,-0.0806112388479999,-0.013087997568,-9.820490007744,0.021818737152,0.0067452513024,0.009562374528,33.7238948733824,-0.0800708704384,-0.013545747776,-9.8198853856896,0.0223019875456,0.0067432512768,0.0095696242176,-0.323034,-0.325001,0.819223,-0.090696,-0.010256,-9.818463,359.88113981629374,359.51522754538536,133.96844014976705,0.0014221250176,0.0014215000192,0.0117943750016,-0.3909848752896,-0.0034878749056,0.0026086258048,-0.9203867498752,0.0014221250176,0.0014215000192,0.0117943750016,2.24003,0.0,0.0,0.00512335026432,0.0,0.0,-0.0045268993356799,0.0,0.0,0.0,-5.182695688025433
2023-09-08 15:34:47.640,-0.01738,0.025145,-0.014995,0.086965,0.086973,0.069307,48.35925,-4.5573,48.458127,50.788002,0.583562,0.582741,0.574839,-0.083225,-0.013658,-9.818675,0.02483,0.00644,0.009673,33.724274,-0.08114,-0.014067,-9.81738,0.025221,0.006444,0.009753,-0.3256098859903999,-0.3248607494016,0.8148913565184,-0.0888701172096,-0.0087443685503999,-9.8165028666368,359.90202421703265,359.5213510579477,133.9768411792824,0.001418,0.001417,0.011794,-0.390917,-0.00351,0.00242,-0.920416,0.001418,0.001417,0.011794,2.24003,0.0,0.0,0.0050614,0.0,0.0,-0.0046825999999999,0.0,0.0,0.0,-5.174294658510092
2023-09-08 15:34:47.665,-0.0166356269056,0.0254574992,-0.0152993742207999,0.0872949991552,0.0873029991552,0.0694782495616,48.35925,-4.5573,48.4584713741184,50.788002,0.5845938723584,0.5837691223679999,0.5756814978432,-0.0827106263168,-0.0128686270208,-9.8164512556928,0.0287281150208,0.0054393775616,0.009826124608,33.7245858742016,-0.0826131212288,-0.012451379136,-9.8157650041344,0.0292697396352,0.0052996279296,0.0097455000192,-0.329903,-0.324627,0.807672,-0.085827,-0.006225,-9.813236,359.9460344250047,359.5291575879216,133.99098603863874,0.0014198749951999,0.0014188749952,0.0117933750016,-0.3908020002944,-0.0035981247744,0.0020393759744,-0.9204653748736,0.0014198749951999,0.0014188749952,0.0117933750016,2.24003,0.0,0.0,0.00495815026432,0.0,0.0,-0.00494209933568,0.0,0.0,0.0,-5.160149799153743
2023-09-08 15:34:47.680,-0.016189,0.025645,-0.015482,0.087493,0.087501,0.069581,48.35925,-4.5573,48.458678,50.788002,0.585213,0.584386,0.576187,-0.082402,-0.012395,-9.815117,0.031067,0.004839,0.009918,33.724773,-0.083497,-0.011482,-9.814796,0.031699,0.004613,0.009741,-0.3228825950464,-0.3237577462912,0.8040431095168,-0.0852749976448,-0.0077088813312,-9.81039536288,359.9724407300542,359.5338415378816,133.99947301219004,0.001421,0.00142,0.011793,-0.390733,-0.003651,0.001811,-0.920495,0.001421,0.00142,0.011793,2.24003,0.0,0.0,0.0048962,0.0,0.0,-0.0050977999999999,0.0,0.0,0.0,-5.151662825602443
2023-09-08 15:34:47.705,-0.0157840010368,0.0256131250815999,-0.0154232501504,0.0878236241536,0.0878316241535999,0.0697516245632,48.35925,-4.5573,48.4590298740992,50.788002,0.586256747328,0.5854259973375999,0.5770363728256,-0.081595752064,-0.0106375044992,-9.810754511168,0.0335719935872,0.0037902526848,0.0099942498048,33.7248517497984,-0.0824451276928,-0.0110513761024,-9.8104228861952,0.0338058696063999,0.0036811273856,0.0099709994112,-0.311182,-0.322309,0.797995,-0.084355,-0.010182,-9.805661,135.02178963750575,359.5394636718536,134.01447730603897,0.0014222499968,0.0014218749952,0.011793,-0.390611125312,-0.0037722496896,0.0013991260544,-0.9205468748672,0.0014222499968,0.0014218749952,0.011793,2.24003,0.0,0.0,0.00479295026432,0.0,0.0,-0.00535729933568,0.0,0.0,0.0,-5.136658531753511
2023-09-08 15:34:47.720,-0.015541,0.025594,-0.015388,0.088022,0.08803,0.069854,48.35925,-4.5573,48.459241,50.788002,0.586883,0.58605,0.577546,-0.081112,-0.009583,-9.808137,0.035075,0.003161,0.01004,33.724899,-0.081814,-0.010793,-9.807799,0.03507,0.003122,0.010109,-0.3135208849792,-0.3175356046336,0.7997260073856,-0.0824196167424,-0.012643885504,-9.8022106102784,0.0504775817510255,359.5428369752651,134.02347994380605,0.001423,0.001423,0.011793,-0.390538,-0.003845,0.001152,-0.920578,0.001423,0.001423,0.011793,2.24003,0.0,0.0,0.004731,0.0,0.0,-0.005513,0.0,0.0,0.0,-5.127655893986429
2023-09-08 15:34:47.745,-0.0153791254144,0.0253883755263999,-0.0150342509056,0.0883526241536,0.0883606241535999,0.0700239995648,48.35925,-4.5572993750016,48.4595578741888,50.788002,0.5879386222976,0.5871018723071999,0.578402247808,-0.0805876263423999,-0.0129711163263999,-9.8060645053056,0.0353168743808,0.001961003072,0.0102468744704,33.724799000256,-0.0798727549696,-0.013952366912,-9.8058315050368,0.0353662492416,0.0016582537472,0.0104189992064,-0.317419,-0.30958,0.802611,-0.079194,-0.016747,-9.79646,0.0999666846130226,359.54509299080803,134.03855585719597,0.0014248749952,0.0014248749952,0.0117967499904,-0.3904148753151999,-0.0039956246144,0.0007463760384,-0.9206298748672,0.0014248749952,0.0014248749952,0.0117967499904,2.24003,0.0,0.0,0.00469837508352,0.0,0.0,-0.00486962664704,0.0,0.0,0.0,-5.112579980596507
2023-09-08 15:34:47.760,-0.015282,0.025265,-0.014822,0.088551,0.088559,0.070126,48.35925,-4.557299,48.459748,50.788002,0.588572,0.587733,0.578916,-0.080273,-0.015004,-9.804821,0.035462,0.001241,0.010371,33.724739,-0.078708,-0.015848,-9.804651,0.035544,0.00078,0.010605,-0.3185942550144,-0.3142026447232,0.8026961253632,-0.0804663804288,-0.015933246528,-9.7960594982912,0.1296603490381052,359.5464466093744,134.04760146698104,0.001426,0.001426,0.011799,-0.390341,-0.004086,0.000503,-0.920661,0.001426,0.001426,0.011799,2.24003,0.0,0.0,0.0046788,0.0,0.0,-0.0044836,0.0,0.0,0.0,-5.103534370811445
2023-09-08 15:34:47.785,-0.0156240303744,0.0245140644224,-0.0139082523392,0.0885558437376,0.088563687488,0.07013381248,48.35925,-4.557299,48.4598734684288,50.7878459066496,0.5891330923136,0.5882914360703999,0.5794538111232,-0.0790130032256,-0.0171646194688,-9.8025828807296,0.03432137792,-0.0004352457088,0.0108222488448,33.7246365002624,-0.0782336262144,-0.0178629948415999,-9.8028341296512,0.0342183783936,-0.000598121472,0.0108668743296,-0.320553,-0.321907,0.802838,-0.082587,-0.014577,-9.795392,0.1761056214056959,359.5455513651114,134.0637874832572,0.0014278749951999,0.0014278749951999,0.0117983750016,-0.3902091253376,-0.0042509995776,0.0001323759487999,-0.9207159998592,0.0014278749951999,0.0014278749951999,0.0117983750016,2.24003,0.0,0.0,0.00464617508352,0.0,0.0,-0.0038402266470399,0.0,0.0,0.0,-5.087348354535294
2023-09-08 15:34:47.800,-0.01582925,0.0240635,-0.01336,0.08855875,0.0885664999999999,0.0701384999999999,48.35925,-4.557299,48.45994875,50.78775225,0.58946975,0.5886264999999999,0.5797765,-0.078257,-0.018461,-9.80124,0.033637,-0.001441,0.011093,33.724575,-0.077949,-0.019072,-9.801744,0.033423,-0.001425,0.011024,-0.3205573750186666,-0.3207377450112,0.8028420000170667,-0.0835552541311999,-0.0155558791765333,-9.792329861934933,0.203972975066573,359.54501421488663,134.07349915932096,0.001429,0.001429,0.011798,-0.39013,-0.00435,-9e-05,-0.920749,0.001429,0.001429,0.011798,2.24003,0.0,0.0,0.0046266,0.0,0.0,-0.0034541999999999,0.0,0.0,0.0,-5.077636678471521
2023-09-08 15:34:47.905,-0.0172657803744,0.0209095644224,-0.0095222523392,0.0885790937375999,0.088586187488,0.07017131248,48.35925,-4.557299,48.4604757184288,50.7870966566496,0.5918263423136,0.5909719360704,0.5820353111232001,-0.0760329701056,-0.0170946883328,-9.7796546381568,0.0137742933568,-0.0060504971904,0.012123311872,33.7235059694016,-0.0755838764416,-0.0164942515712,-9.7801717631488,0.0132413560511999,-0.0060299034432,0.0120759681088,-0.320588,-0.312553,0.80287,-0.090333,-0.022408,-9.770895,0.3217873498796382,359.51508435030644,134.14298457357242,0.0014263750016,0.0014255000021333,0.0117953750016,-0.3895665003434667,-0.0049913746090666,-0.0009378744832,-0.9209843748565334,0.0014263750016,0.0014255000021333,0.0117953750016,2.24003,0.0,0.0,0.00448957508352,0.0,0.0,-0.00075202664704,0.0,0.0,0.0,-5.008151264220061
2023-09-08 15:34:47.920,-0.017471,0.020459,-0.008974,0.088582,0.088589,0.070176,48.35925,-4.557299,48.460551,50.787003,0.592163,0.591307,0.582358,-0.07571525,-0.0168995,-9.776571,0.01093675,-0.006709,0.0122705,33.72335325,-0.075246,-0.0161259999999999,-9.77709,0.01035825,-0.00668775,0.01222625,-0.3230982607104,-0.313591754432,0.8000454879487999,-0.0844222247808,-0.0215822464768,-9.7672507344512,0.3386180569223165,359.5108086345173,134.1529111097261,0.001426,0.001425,0.011795,-0.389486,-0.005083,-0.001059,-0.921018,0.001426,0.001425,0.011795,2.24003,0.0,0.0,0.00447,0.0,0.0,-0.000366,0.0,0.0,0.0,-4.99822472806639
2023-09-08 15:34:47.945,-0.0182872479103999,0.01969337696,-0.0075533786368,0.0889119991552,0.0889196241536,0.0703453745664,48.35925,-4.557299,48.4607141245824,50.787003,0.5932354972544001,0.592375747264,0.5832248727808,-0.0751857201056,-0.0165741883328,-9.7714316381568,0.0062075433568,-0.0078064971904,0.012515811872,33.7230987194016,-0.0746828764416,-0.0155122515712,-9.7719537631488,0.0055531060511999,-0.0077841534431999,0.0124767181088,-0.327282,-0.315323,0.795338,-0.074571,-0.020206,-9.761177,0.3409815017767968,359.4997792251964,134.17078018521678,0.0014278749951999,0.0014268749952,0.0117993749888,-0.3893416253696,-0.0051792497536,-0.0010408750464,-0.9210786248448,0.0014278749951999,0.0014268749952,0.0117993749888,2.24003,0.0,0.0,0.0045462498048,0.0,0.0,0.0008764968191999,0.0,0.0,0.0,-4.980355652575696
2023-09-08 15:34:47.960,-0.018777,0.019234,-0.006701,0.08911,0.089118,0.070447,48.35925,-4.557299,48.460812,50.787003,0.593879,0.593017,0.583745,-0.074868,-0.016379,-9.768348,0.00337,-0.008465,0.012663,33.722946,-0.074345,-0.015144,-9.768872,0.00267,-0.008442,0.012627,-0.3247627392512,-0.3177897605248,0.7981493869952,-0.0723839906688,-0.019956623936,-9.7618152527232,0.34239957837018,359.49316153442726,134.1815017037031,0.001429,0.001428,0.011802,-0.389255,-0.005237,-0.00103,-0.921115,0.001429,0.001428,0.011802,2.24003,0.0,0.0,0.004592,0.0,0.0,0.0016219999999999,0.0,0.0,0.0,-4.969634134089375
2023-09-08 15:34:47.985,-0.0195482480256,0.0185483767552,-0.0052778786432,0.089441249152,0.0894486241536,0.070615749568,48.35925,-4.557299,48.4609226247168,50.787003,0.5949646222208,0.5940976222336,0.5846181227648,-0.0754561234944,-0.0166802492288,-9.7653380077056,-0.0022849855232,-0.0091043733632,0.0129186243456,33.7227103756032,-0.0757162464896,-0.0163858718208,-9.7658232578048,-0.0029668605695999,-0.0092082480383999,0.0129013742975999,-0.320564,-0.321901,0.802835,-0.068739,-0.019541,-9.762879,0.3317998862955409,359.4803774463508,134.1998363062106,0.0014308749951999,0.0014298749952,0.0118013750016,-0.3891075003776,-0.0053038748288,-0.0009025003264,-0.9211768748416,0.0014308749951999,0.0014298749952,0.0118013750016,2.24003,0.0,0.0,0.0046682498048,0.0,0.0,0.0028644968191999,0.0,0.0,0.0,-4.951299531581867
2023-09-08 15:34:48.000,-0.020011,0.018137,-0.004424,0.08964,0.089647,0.070717,48.35925,-4.557299,48.460989,50.787003,0.595616,0.594746,0.585142,-0.075809,-0.016861,-9.763532,-0.005678,-0.009488,0.013072,33.722569,-0.076539,-0.017131,-9.763994,-0.006349,-0.009668,0.013066,-0.3216826297728,-0.3241971347968,0.8044403818496,-0.0749366514432,-0.01826599456,-9.7668768920576,0.3254400276343076,359.4727069411411,134.2108371428138,0.001432,0.001431,0.011801,-0.389019,-0.005344,-0.000826,-0.921214,0.001432,0.001431,0.011801,2.24003,0.0,0.0,0.0047139999999999,0.0,0.0,0.0036099999999999,0.0,0.0,0.0,-4.940298694978679
2023-09-08 15:34:48.020,-0.020417,0.0173535,-0.0031035,0.088684,0.0886909999999999,0.0702465,48.35925,-4.557299,48.4586795,50.7875025,0.5945590000000001,0.593692,0.5846055,-0.0798085,-0.015292,-9.766816,-0.009913,-0.0094314999999999,0.0128139999999999,33.7228375,-0.080328,-0.01548,-9.767173,-0.0105255,-0.009484,0.0128274999999999,-0.3231741297727999,-0.3272586347968,0.8065808818496,-0.0832001514431999,-0.01656599456,-9.7722073920576,0.3074205049774432,359.4630239544034,134.22504649613305,0.0014264999999999,0.0014255,0.0118005,-0.388905,-0.0053605,-0.000649,-0.921262,0.0014264999999999,0.0014255,0.0118005,2.24003,0.0,0.0,0.004775,0.0,0.0,0.004604,0.0,0.0,0.0,-4.926089341659434
2023-09-08 15:34:48.025,-0.0205184987008,0.0171576275072,-0.0027733792256,0.0884450030592,0.0884520030592,0.0701288765056,48.35925,-4.557299,48.4581021323904,50.7876273734016,0.5942947533824,0.5934285033728,0.5844713767167999,-0.0808083622016,-0.0148997550208,-9.7676369894912,-0.010971736448,-0.0094173751808,0.0127495008256,33.7229046241408,-0.0812752378752,-0.0150672552832,-9.7679677398272,-0.0115696116351999,-0.0094380005887999,0.0127678757632,-0.323547,-0.328024,0.807116,-0.085266,-0.016141,-9.77354,0.3029156819756996,359.4606032387045,134.22859878899294,0.0014251250176,0.0014241250176,0.0118003750016,-0.3888765003648,-0.0053646249472,-0.0006047505664,-0.9212739998464,0.0014251250176,0.0014241250176,0.0118003750016,2.24003,0.0,0.0,0.004804999616,0.0,0.0,0.00480669740544,0.0,0.0,0.0,-4.922537048799541
2023-09-08 15:34:48.040,-0.020823,0.01657,-0.001783,0.087728,0.087735,0.069776,48.35925,-4.557299,48.45637,50.788002,0.593502,0.592638,0.584069,-0.083808,-0.013723,-9.7701,-0.014148,-0.009375,0.012556,33.723106,-0.084117,-0.013829,-9.770352,-0.014702,-0.0093,0.012589,-0.3234266244863999,-0.32570836512,0.8101475129344,-0.0854932509696,-0.019026637312,-9.7766671383424,0.2894009823205788,359.45334096766567,134.2392558494523,0.001421,0.00142,0.0118,-0.388791,-0.005377,-0.000472,-0.92131,0.001421,0.00142,0.0118,2.24003,0.0,0.0,0.004895,0.0,0.0,0.0054148,0.0,0.0,0.0,-4.911879988340189
2023-09-08 15:34:48.065,-0.0214254984576,0.0160231264,-0.0007948775296,0.0880573741568,0.0880637491584,0.0699459995648,48.35925,-4.557299,48.4564056249088,50.788002,0.5945588722944,0.593691122304,0.5849289977984,-0.0835511256575999,-0.016429243072,-9.7717756207104,-0.0185673636864,-0.0086612518272,0.013037248768,33.7229991252736,-0.0839332504704,-0.0159246196351999,-9.7711819978752,-0.0190407388928,-0.0085856268288,0.013067123776,-0.323226,-0.321849,0.8152,-0.085872,-0.023836,-9.781879,0.256885710686213,359.44274127559106,134.25766207150082,0.0014228749951999,0.0014218749952,0.0117993750016,-0.3886447503744,-0.005352000064,-0.0001757507584,-0.9213718748416,0.0014228749951999,0.0014218749952,0.0117993750016,2.24003,0.0,0.0,0.005044999616,0.0,0.0,0.00642829740544,0.0,0.0,0.0,-4.893473766291663
2023-09-08 15:34:48.080,-0.021787,0.015695,-0.000202,0.088255,0.088261,0.070048,48.35925,-4.557299,48.456427,50.788002,0.595193,0.594323,0.585445,-0.083397,-0.018053,-9.772781,-0.021219,-0.008233,0.013326,33.722935,-0.083823,-0.017182,-9.77168,-0.021644,-0.008157,0.013354,-0.3209692403712,-0.3219345003648,0.8119738612352,-0.0835567401216,-0.0204651106176,-9.7780749837696,0.2373764145227,359.4363814169298,134.268705880122,0.001424,0.001423,0.011799,-0.388557,-0.005337,2e-06,-0.921409,0.001424,0.001423,0.011799,2.24003,0.0,0.0,0.005135,0.0,0.0,0.0070364,0.0,0.0,0.0,-4.882429957670468
2023-09-08 15:34:48.105,-0.0223363735936,0.0155275004288,0.0006329978623999,0.0885843741568,0.0885903741568,0.0702179995648,48.35925,-4.557299,48.4564563749248,50.788002,0.5962623722624,0.5953886222720001,0.5863112477824,-0.0797401343616,-0.0160255051904,-9.7722785012864,-0.0240989926272,-0.0072123776128,0.0131953753344,33.7228181252992,-0.079748010432,-0.015035130496,-9.7718056246784,-0.0244914927104,-0.0070826277504,0.0132558752512,-0.317208,-0.322077,0.806597,-0.079698,-0.014847,-9.771735,0.1983795744237746,359.42828840879173,134.28729115102317,0.0014258749952,0.0014248749952,0.011799,-0.3884088753792,-0.0052701251712,0.0003426241279999,-0.9214721248384,0.0014258749952,0.0014248749952,0.011799,2.24003,0.0,0.0,0.005284999616,0.0,0.0,0.00804989740544,0.0,0.0,0.0,-4.863844686769312
2023-09-08 15:34:48.120,-0.022666,0.015427,0.001134,0.088782,0.088788,0.07032,48.35925,-4.557299,48.456474,50.788002,0.596904,0.596028,0.586831,-0.077546,-0.014809,-9.771977,-0.025827,-0.0066,0.013117,33.722748,-0.077303,-0.013747,-9.771881,-0.0262,-0.006438,0.013197,-0.3221745211904,-0.3206591189504,0.8024719824,-0.0789543718272,-0.015529502912,-9.7770828978176,0.1749813106329534,359.42343257075987,134.2984423896893,0.001427,0.001426,0.011799,-0.38832,-0.00523,0.000547,-0.92151,0.001427,0.001426,0.011799,2.24003,0.0,0.0,0.005375,0.0,0.0,0.008658,0.0,0.0,0.0,-4.852693448103167
2023-09-08 15:34:48.145,-0.0229716242176,0.0154494999424,0.0015233740032,0.0891113741568,0.0891179991552,0.070488749568,48.3592493750016,-4.557299,48.4564902499584,50.788002,0.5979858722304,0.5971048722432,0.5877047477632,-0.07976474432,-0.015783997504,-9.7750076172416,-0.0272938712448,-0.005468752896,0.0131307499648,33.7222686262272,-0.0793948696448,-0.0161038689664,-9.7768628622464,-0.0274518717952,-0.0053298778368,0.0131745000576,-0.330452,-0.318296,0.795597,-0.077715,-0.016667,-9.785996,0.1330838791217111,359.4178820563289,134.31713508990202,0.0014288749952,0.0014278749951999,0.0118027499904,-0.3881712503807999,-0.0051325002496,0.0009019990912,-0.92157249984,0.0014288749952,0.0014278749951999,0.0118027499904,2.24003,0.0,0.0,0.00555137454848,0.0,0.0,0.00863037507072,0.0,0.0,0.0,-4.834000747890457
2023-09-08 15:34:48.160,-0.023155,0.015463,0.001757,0.089309,0.089316,0.07059,48.359249,-4.557299,48.4565,50.788002,0.598635,0.597751,0.588229,-0.081096,-0.016369,-9.776826,-0.028174,-0.00479,0.013139,33.721981,-0.08065,-0.017518,-9.779852,-0.028203,-0.004665,0.013161,-0.3230633434752,-0.312817226624,0.8010547732864,-0.0789427552384,-0.0211073939456,-9.7899623919232,0.107945248602647,359.41455172493534,134.32835078659514,0.00143,0.001429,0.011805,-0.388082,-0.005074,0.001115,-0.92161,0.00143,0.001429,0.011805,2.24003,0.0,0.0,0.0056571999999999,0.0,0.0,0.0086138,0.0,0.0,0.0,-4.822785051197343
2023-09-08 15:34:48.185,-0.0230865626751999,0.0157487805184,0.001532000576,0.0892358751872,0.089242562688,0.0705592188288,48.359249,-4.557299,48.4559635951232,50.788002,0.5990735926272001,0.5981877176320001,0.588691498816,-0.0834941188607999,-0.0165777494656,-9.7852897283328,-0.0283558745344,-0.003552503168,0.0128408757632,33.7220741247616,-0.0834056179456,-0.0160423787776,-9.786292608512,-0.0283492496256,-0.0033606283391999,0.0127916259456,-0.310749,-0.303686,0.810151,-0.080989,-0.028508,-9.796573,0.0656897193861805,359.41200923122824,134.34643472070897,0.0014312499967999,0.0014308749951999,0.0118043750016,-0.3879388753664,-0.0049521253119999,0.0014624991104,-0.9216706248448,0.0014312499967999,0.0014308749951999,0.0118043750016,2.24003,0.0,0.0,0.0058335745484799,0.0,0.0,0.00858617507072,0.0,0.0,0.0,-4.804701117083511
2023-09-08 15:34:48.200,-0.0230455,0.01592025,0.001397,0.089192,0.0891985,0.07054075,48.359249,-4.557299,48.45564175,50.788002,0.59933675,0.59844975,0.588969,-0.084933,-0.016703,-9.790368,-0.028465,-0.00281,0.012662,33.72213,-0.085059,-0.015157,-9.790157,-0.028437,-0.002578,0.01257,-0.3127093833642667,-0.3051587562837333,0.8108186278485333,-0.0824411311957333,-0.0262332402944,-9.798436507950932,0.0403362287772099,359.4104837245899,134.35728515524926,0.001432,0.001432,0.011804,-0.387853,-0.004879,0.001671,-0.921707,0.001432,0.001432,0.011804,2.24003,0.0,0.0,0.0059394,0.0,0.0,0.0085696,0.0,0.0,0.0,-4.793850682543223
2023-09-08 15:34:48.305,-0.0227580626752,0.0171205305184,0.000452000576,0.0888848751872,0.088890062688,0.0704114688287999,48.359249,-4.557299,48.4533888451232,50.788002,0.6011788426272,0.600283967632,0.5909114988159999,-0.0796383782272,-0.0142709389823999,-9.8068982711744,-0.0146338834304,0.0021774969599999,0.012077937856,33.7215137816256,-0.0798503469248,-0.0129250951104,-9.8074432707136,-0.0143597898304,0.0023884969728,0.0119459066304,-0.326432,-0.315468,0.815492,-0.092606,-0.01031,-9.811481,314.9129047039791,359.42437078068485,134.4317839471523,0.0014267500032,0.0014267500032,0.0118022500010666,-0.3872580003626666,-0.0043373753301333,0.0026448744063999,-0.9219572498474666,0.0014267500032,0.0014267500032,0.0118022500010666,2.24003,0.0,0.0,0.00668017454848,0.0,0.0,0.00845357507072,0.0,0.0,0.0,-4.719351890640184
2023-09-08 15:34:48.320,-0.022717,0.017292,0.000317,0.088841,0.088846,0.070393,48.359249,-4.557299,48.453067,50.788002,0.601442,0.600546,0.591189,-0.078882,-0.0139235,-9.80925975,-0.0126579999999999,0.0028899999999999,0.0119945,33.721425749999995,-0.0791062499999999,-0.01260625,-9.80991275,-0.01234875,0.003098,0.01185675,-0.3255046210432,-0.313139240064,0.8093517238016,-0.0841868390784,-0.0090289945344,-9.817353525056,359.894919540373,359.426354655515,134.44242668360567,0.001426,0.001426,0.011802,-0.387173,-0.00426,0.002784,-0.921993,0.001426,0.001426,0.011802,2.24003,0.0,0.0,0.006786,0.0,0.0,0.008437,0.0,0.0,0.0,-4.708709154186806
2023-09-08 15:34:48.345,-0.0223363759744,0.0180519980543999,-0.0004561230207999,0.0891709991552,0.0891766241535999,0.070561749568,48.359249,-4.557299,48.4531269998464,50.788002,0.6025288722176,0.6016284972288,0.5920671227519999,-0.0776213782272,-0.0133444389824,-9.8131955211744,-0.0093648834304,0.0040774969599999,0.011855437856,33.7212790316256,-0.0778660969248,-0.0120748451104,-9.8140285207136,-0.0089970398304,0.0042804969728,0.0117081566304,-0.323959,-0.309258,0.799118,-0.070155,-0.006894,-9.827141,359.88342460403527,359.4347341418173,134.458899178046,0.0014278749951999,0.0014272499968,0.0118063749888,-0.3870411253376,-0.0041543752704,0.0028477498368,-0.9220486248576,0.0014278749951999,0.0014272499968,0.0118063749888,2.24003,0.0,0.0,0.00692299964928,0.0,0.0,0.00770425187584,0.0,0.0,0.0,-4.69223665974647
2023-09-08 15:34:48.360,-0.022108,0.018508,-0.00092,0.089369,0.089375,0.070663,48.359249,-4.557299,48.453163,50.788002,0.603181,0.602278,0.592594,-0.076865,-0.012997,-9.815557,-0.007389,0.00479,0.011772,33.721191,-0.077122,-0.011756,-9.816498,-0.006986,0.00499,0.011619,-0.3214506142976,-0.3082184955647999,0.8019425120512,-0.0745766438656,-0.0075611278464,-9.82694412416,359.8765275951493,359.4397618679211,134.4687827421817,0.001429,0.001428,0.011809,-0.386962,-0.004091,0.002886,-0.922082,0.001429,0.001428,0.011809,2.24003,0.0,0.0,0.0070052,0.0,0.0,0.0072645999999999,0.0,0.0,0.0,-4.682353095610779
2023-09-08 15:34:48.385,-0.0216180012544,0.0193542478336,-0.0018649975808,0.0896996241536,0.0897056241535999,0.070831749568,48.359249,-4.557299,48.453259874752,50.788002,0.6042803721856,0.6033723721984,0.593478372736,-0.0767312503424,-0.010253257024,-9.8218426089088,-0.0029821362816,0.0050137494272,0.0115232506368,33.7212484998528,-0.0761776274176,-0.0109085021696,-9.8223423600384,-0.002451636608,0.0049443751168,0.0114371254656,-0.31727,-0.306486,0.80665,-0.081946,-0.008673,-9.826616,359.87545330203363,359.4479981151413,134.48582819295035,0.0014308749951999,0.0014298749952,0.0118083750016,-0.3868251253504,-0.0040216251776,0.0028660000512,-0.9221401248512,0.0014308749951999,0.0014298749952,0.0118083750016,2.24003,0.0,0.0,0.00714219964928,0.0,0.0,0.0065318518758399,0.0,0.0,0.0,-4.66530764484213
