timestamp,north_vel,east_vel,down_vel,north_vel_dev,east_vel_dev,down_vel_dev,lat,long,alt,undulation,lat_dev,long_dev,alt_dev,accel_x,accel_y,accel_z,gyro_x,gyro_y,gyro_z,temp,delta_vel_x,delta_vel_y,delta_vel_z,delta_angle_x,delta_angle_y,delta_angle_z,mag_x,mag_y,mag_z,accel_x.1,accel_y.1,accel_z.1,roll,pitch,yaw,roll_dev,pitch_dev,yaw_dev,w_quat,x_quat,y_quat,z_quat,roll_dev.1,pitch_dev.1,yaw_dev.1,heave_period,surge_motion,sway_motion,heave_motion,surge_accel,sway_accel,heave_accel,surge_vel,sway_vel,heave_vel,wave_angle
2023-09-08 15:46:47.880,0.051806,0.048086,-0.010778,0.089549,0.089561,0.070522,48.359257,-4.557322,48.968285,50.788002,0.590461,0.589601,0.576536,-0.087941,-0.022311,-9.778954,0.008014,0.006357,-0.030091,33.528362,-0.091879,-0.024799,-9.778938,0.007896,0.006694,-0.030029,-0.394901,-0.249593,0.805061,-0.052011,0.030723,-9.801763,0.1210659821111429,359.48284829411494,149.4732868895087,0.001425,0.001425,0.012421,-0.263249,-0.004632,0.000169,-0.964717,0.001425,0.001425,0.012421,2.070915,0.0,0.0,-0.002835,0.0,0.0,0.000495,0.0,0.0,0.0,10.32215105171622
2023-09-08 15:46:47.905,0.0514178759936,0.0479716252927999,-0.0111054991615999,0.0898789991552,0.0898909991552,0.0706901245696,48.359257,-4.557322,48.968594374208,50.788002,0.5915722471552,0.5907078721664,0.5774197477376,-0.0770072779904,-0.023876620992,-9.7932927132928,0.0073821266176,0.0067894988927999,-0.0297403758976,33.5278545012992,-0.0757565412736,-0.0216727580032,-9.7948929591552,0.0073653763584,0.0068402496256,-0.0297065008256,-0.394901,-0.249593,0.805061,-0.052011,0.030723,-9.801763,0.1302332833648848,359.4939851327474,149.42805914933885,0.0014268749952,0.0014268749952,0.0124203750016,-0.2636296240256,-0.0045595001856,6.775025919999998e-05,-0.9646132502656,0.0014268749952,0.0014268749952,0.0124203750016,2.070915,0.0,0.0,-0.002835,0.0,0.0,0.000495,0.0,0.0,0.0,10.27692331154637
2023-09-08 15:46:47.920,0.051185,0.047903,-0.011302,0.090077,0.090089,0.070791,48.359257,-4.557322,48.96878,50.788002,0.592239,0.591372,0.57795,-0.070447,-0.024816,-9.801896,0.007003,0.007049,-0.02953,33.52755,-0.066083,-0.019797,-9.804466,0.007047,0.006928,-0.029513,-0.4031101600256,-0.2504078784768,0.8087877659008,-0.0623895442816,0.0169645662976,-9.7914009557888,0.135733701666492,359.5006672815435,149.40092231998364,0.001428,0.001428,0.01242,-0.263858,-0.004516,7e-06,-0.964551,0.001428,0.001428,0.01242,2.070915,0.0,0.0,-0.002835,0.0,0.0,0.000495,0.0,0.0,0.0,10.249786482191157
2023-09-08 15:46:47.945,0.0508450008703999,0.0478042502528,-0.0113194999552,0.0904076241536,0.0904189991552,0.0709578745728,48.359257,-4.557322,48.969064374272,50.788002,0.5933627471232,0.5924913721344,0.5788406227199999,-0.0644320153984,-0.0216447581183999,-9.802070999552,0.0062161270143999,0.0065558762624,-0.0289993763584,33.5272325008128,-0.0651186274688,-0.0203119986816,-9.8030091287296,0.0058582530432,0.0064211262976,-0.02901300128,-0.416792,-0.251766,0.814999,-0.079687,-0.005966,-9.774131,0.1422152701310517,359.5106223977488,149.359955942506,0.0014298749952,0.0014292499968,0.0124237499904,-0.2642023741184,-0.0044466251776,-6.862480640000001e-05,-0.96445725024,0.0014298749952,0.0014292499968,0.0124237499904,2.070915,0.0,0.0,-0.0027868751232,0.0,0.0,0.00060387472128,0.0,0.0,0.0,10.20882010471351
2023-09-08 15:46:47.960,0.050641,0.047745,-0.01133,0.090606,0.090617,0.071058,48.359257,-4.557322,48.969235,50.788002,0.594037,0.593163,0.579375,-0.060823,-0.019742,-9.802176,0.005744,0.00626,-0.028681,33.527042,-0.06454,-0.020621,-9.802135,0.005145,0.006117,-0.028713,-0.4181243806848,-0.2481843597184,0.8120923625984,-0.0771707392639999,-0.0185458036736,-9.787610432512,0.1461042377583599,359.51659550824814,149.33537594822067,0.001431,0.00143,0.012426,-0.264409,-0.004405,-0.000114,-0.964401,0.001431,0.00143,0.012426,2.070915,0.0,0.0,-0.002758,0.0,0.0,0.0006692,0.0,0.0,0.0,10.184240110428192
2023-09-08 15:46:47.985,0.050298813376,0.0471615639936,-0.0113212500224,0.0905445939072,0.0905554376576,0.0710348750592,48.359257,-4.557322,48.9697551549184,50.7878459066496,0.5945157487744,0.59363956128,0.5798712487295999,-0.076185460672,-0.0156795104,-9.802279124736,0.0049571270144,0.005878750976,-0.028859124544,33.5269207503104,-0.077283717376,-0.016127261504,-9.8022299997568,0.0046537512576,0.0059607504,-0.0288486246528,-0.420345,-0.242215,0.807248,-0.072977,-0.039512,-9.810076,0.1514040837956794,359.52622833651867,149.2929055603811,0.0014322499968,0.0014318749952,0.0124253750016,-0.2647664990848,-0.0043368751744,-0.000179624832,-0.9643028752512,0.0014322499968,0.0014318749952,0.0124253750016,2.070915,0.0,0.0,-0.0027098751231999,0.0,0.0,0.00077807472128,0.0,0.0,0.0,10.141769722588606
2023-09-08 15:46:48.000,0.0500935,0.0468115,-0.011316,0.09050775,0.0905185,0.071021,48.359257,-4.557322,48.97006725,50.78775225,0.594803,0.5939255,0.5801689999999999,-0.085403,-0.013242,-9.802341,0.004485,0.00565,-0.028966,33.526848,-0.08493,-0.013431,-9.802287,0.004359,0.005867,-0.02893,-0.4194536211968,-0.245381888512,0.8091831332565333,-0.0693042343296,-0.0334805992661333,-9.809475372437332,0.1545840131262961,359.5320080729371,149.26742315371817,0.001433,0.001433,0.012425,-0.264981,-0.004296,-0.000219,-0.964244,0.001433,0.001433,0.012425,2.070915,0.0,0.0,-0.002681,0.0,0.0,0.0008434,0.0,0.0,0.0,10.116287315925687
2023-09-08 15:46:48.105,0.048656313376,0.0443610639936,-0.0112792500224,0.0902498439072,0.0902599376576,0.0709238750592,48.359257,-4.557322,48.9722519049184,50.7870966566496,0.5968137487744,0.59592706128,0.5822532487296,-0.0659815118378666,-0.0106975015509333,-9.811892494178132,-0.0022402459007999,0.0038466260992,-0.0280122505813333,33.52771599947093,-0.0633140131754666,-0.0131851251498666,-9.810765744832,-0.0026164957482666,0.0038965012010666,-0.028103125504,-0.413214,-0.26755,0.822729,-0.043595,0.008739,-9.805271,0.1478660870731255,359.5621384726234,149.09386001941908,0.0014286250026666,0.0014286250026666,0.0124206250026666,-0.2664422491093333,-0.0040265001642666,-0.0002259999957333,-0.9638423752448,0.0014286250026666,0.0014286250026666,0.0124206250026666,2.070915,0.0,0.0,-0.0024788751232,0.0,0.0,0.00130067472128,0.0,0.0,0.0,9.942724181626602
2023-09-08 15:46:48.120,0.048451,0.044011,-0.011274,0.090213,0.090223,0.07091,48.359257,-4.557322,48.972564,50.787003,0.597101,0.596213,0.582551,-0.063207,-0.010334,-9.813257,-0.003201,0.003589,-0.027876,33.52784,-0.060226,-0.01315,-9.811977,-0.003613,0.003615,-0.027985,-0.4097853603712,-0.2630139806464,0.8194199858816,-0.063110083264,0.0089411258624,-9.8021502366848,0.146906378671543,359.5664428364245,149.06906516504387,0.001428,0.001428,0.01242,-0.266651,-0.003988,-0.000227,-0.963785,0.001428,0.001428,0.01242,2.070915,0.0,0.0,-0.00245,0.0,0.0,0.001366,0.0,0.0,0.0,9.917929327251386
2023-09-08 15:46:48.145,0.0487878741376,0.0436472509312,-0.0112702500096,0.0905436241536,0.090554249152,0.0710768745728,48.359257,-4.557322,48.9728302493184,50.787003,0.598232247104,0.5973398721152,0.583447872704,-0.0724807262592,-0.0154077370112,-9.8091295105664,-0.0051672449664,0.0031458761344,-0.0275772507648,33.5276250005504,-0.0743553388288,-0.0162881169664,-9.8099851300992,-0.0055248701056,0.0032437509504,-0.0275668760704,-0.404071,-0.255454,0.813905,-0.095635,0.009278,-9.796949,0.1363783061379488,359.57199335085545,149.0301041347155,0.0014298749952,0.0014298749952,0.0124243749888,-0.26697912416,-0.0039173751808,-0.0001501251968,-0.963694375232,0.0014298749952,0.0014298749952,0.0124243749888,2.070915,0.0,0.0,-0.00238750016,0.0,0.0,0.001415999872,0.0,0.0,0.0,9.878968296923006
2023-09-08 15:46:48.160,0.04899,0.043429,-0.011268,0.090742,0.090753,0.071177,48.359257,-4.557322,48.97299,50.787003,0.598911,0.598016,0.583986,-0.078045,-0.018452,-9.806653,-0.006347,0.00288,-0.027398,33.527496,-0.082833,-0.018171,-9.80879,-0.006672,0.003021,-0.027316,-0.407648515264,-0.2541249943296,0.8142140013184,-0.085335581056,0.0021102194176,-9.7949922416512,0.1300614194946968,359.575323682249,149.00672735693365,0.001431,0.001431,0.012427,-0.267176,-0.003875,-0.000104,-0.96364,0.001431,0.001431,0.012427,2.070915,0.0,0.0,-0.00235,0.0,0.0,0.001446,0.0,0.0,0.0,9.855591519141171
2023-09-08 15:46:48.185,0.0492187494144,0.0430390009984,-0.011218000128,0.091073249152,0.091084249152,0.0713432495744,48.359257,-4.557322,48.9732706242816,50.787003,0.6000553720703999,0.5991553720832,0.584889122688,-0.079907495232,-0.0158463816704,-9.8075979975808,-0.0081557453695999,0.0027743752704,-0.0273180002048,33.527813499187204,-0.0798723825792,-0.016580379072,-9.8090418743552,-0.0085726201344,0.0027272507519999,-0.0272041252864,-0.413611,-0.25191,0.814729,-0.06817,-0.009836,-9.791731,0.1151645549573662,359.5801580012695,148.96554612083287,0.0014322499968,0.0014322499968,0.0124257500032,-0.267522874112,-0.0037993751936,1.1624704000000015e-05,-0.9635437502464,0.0014322499968,0.0014322499968,0.0124257500032,2.070915,0.0,0.0,-0.00228750016,0.0,0.0,0.001495999872,0.0,0.0,0.0,9.814410283040388
2023-09-08 15:46:48.200,0.049356,0.042805,-0.011188,0.091272,0.091283,0.071443,48.359257,-4.557322,48.973439,50.787003,0.600742,0.599839,0.585431,-0.081025,-0.014283,-9.808165,-0.009241,0.002711,-0.02727,33.528004,-0.078096,-0.015626,-9.809193,-0.009713,0.002551,-0.027137,-0.412409119872,-0.2554683901824,0.8146146245120001,-0.071691265024,-0.0126020118016,-9.7933318818304,0.1062263752172546,359.5830586124833,148.9408372104936,0.001433,0.001433,0.012425,-0.267731,-0.003754,8.1e-05,-0.963486,0.001433,0.001433,0.012425,2.070915,0.0,0.0,-0.00225,0.0,0.0,0.001526,0.0,0.0,0.0,9.789701372701131
2023-09-08 15:46:48.220,0.0485489999999999,0.041871,-0.0108895,0.0902545,0.0902645,0.0709535,48.359257,-4.557322,48.972343,50.787003,0.599521,0.598622,0.5848465,-0.071438,-0.0145375,-9.8094615,-0.01056,0.00212,-0.0274179999999999,33.527571,-0.070391,-0.0153055,-9.810209,-0.0108335,0.0019865,-0.0274245,-0.410806619872,-0.2602128901824,0.8144621245120001,-0.076386265024,-0.0162900118016,-9.7954663818304,0.0923321486853321,359.5854936831126,148.9076916020453,0.0014275,0.0014275,0.0124245,-0.2680099999999999,-0.003701,0.0001929999999999,-0.9634085,0.0014275,0.0014275,0.0124245,2.070915,0.0,0.0,-0.0022,0.0,0.0,0.001566,0.0,0.0,0.0,9.756555764252823
2023-09-08 15:46:48.225,0.0483472525824,0.0416375029888,-0.0108148759552,0.090000128256,0.0900098782592,0.0708311265664,48.359257,-4.557322,48.9720690035072,50.787003,0.5992157539072,0.5983177538944,0.5847003768704,-0.0690412806784,-0.0146011241856,-9.8097856208512,-0.0108897457792,0.0019722518912,-0.0274549995264,33.5274627513856,-0.068464774656,-0.0152253760256,-9.8104629967488,-0.0111136214144,0.0018453768063999,-0.02749637408,-0.410406,-0.261399,0.814424,-0.07756,-0.017212,-9.796,0.0888586365138764,359.5861024429777,148.89940530599915,0.0014261250176,0.0014261250176,0.0124243750016,-0.2680797491072,-0.0036877501696,0.0002209996416,-0.963389125248,0.0014261250176,0.0014261250176,0.0124243750016,2.070915,0.0,0.0,-0.002169687888,0.0,0.0,0.00165673633856,0.0,0.0,0.0,9.748269468206672
2023-09-08 15:46:48.240,0.047742,0.040937,-0.010591,0.089237,0.089246,0.070464,48.359257,-4.557322,48.971247,50.787003,0.5983,0.597405,0.584262,-0.061851,-0.014792,-9.810758,-0.011879,0.001529,-0.027566,33.527138,-0.062686,-0.014985,-9.811225,-0.011954,0.001422,-0.027712,-0.4115377548288,-0.2601877448319999,0.8160398818944,-0.0810696399744,-0.0201456375168,-9.8018458999424,0.0784379221534097,359.5879287537419,148.87454599359697,0.001422,0.001422,0.012424,-0.268289,-0.003648,0.000305,-0.963331,0.001422,0.001422,0.012424,2.070915,0.0,0.0,-0.00207875,0.0,0.0,0.00192895,0.0,0.0,0.0,9.723410155804489
2023-09-08 15:46:48.265,0.04838262336,0.040443251264,-0.0105372501376,0.0895663741568,0.0895759991552,0.0706321245696,48.359257,-4.557322,48.9715107493248,50.787003,0.5994131221504,0.5985137471616,0.5851513727232,-0.0803497026432,-0.0113932587008,-9.8059498873088,-0.0130896219008,0.0009802514048,-0.027525375104,33.526975500416,-0.0813372022528,-0.0110268851328,-9.8060162633344,-0.0132364967168,0.0009632511744,-0.027652625152,-0.413424,-0.258169,0.818733,-0.086919,-0.025035,-9.811589,0.0573817770862212,359.5900415302027,148.8331140891025,0.0014238749952,0.0014238749952,0.0124227500032,-0.2686377491072,-0.0035805001728,0.0004781245568,-0.963234125248,0.0014238749952,0.0014238749952,0.0124227500032,2.070915,0.0,0.0,-0.001927187888,0.0,0.0,0.00238263633856,0.0,0.0,0.0,9.681978251310028
2023-09-08 15:46:48.280,0.048767,0.040147,-0.010505,0.089764,0.089774,0.070733,48.359257,-4.557322,48.971669,50.787003,0.600081,0.599179,0.585685,-0.091449,-0.009354,-9.803065,-0.013816,0.000651,-0.027501,33.526878,-0.092528,-0.008652,-9.802891,-0.014006,0.000688,-0.027617,-0.407534599872,-0.257257746112,0.816719241408,-0.0808837242496,-0.019524351488,-9.8118136259584,0.0447480037997172,359.5913092047332,148.80825477670032,0.001425,0.001425,0.012422,-0.268847,-0.00354,0.000582,-0.963176,0.001425,0.001425,0.012422,2.070915,0.0,0.0,-0.00183625,0.0,0.0,0.00265485,0.0,0.0,0.0,9.657118938907844
2023-09-08 15:46:48.305,0.049116999104,0.040195828,-0.0098265642368,0.0896977501696,0.0897079064192,0.0706864376192,48.359257,-4.557322,48.9708937676096,50.7870810466752,0.5987433471744,0.5978472065344,0.5844286750912,-0.0753859161216,-0.0084365023488,-9.8090043597952,-0.014694122752,-4.087322879999997e-05,-0.0277678743168,33.5268067501824,-0.074734295552,-0.007305128448,-9.8078072374144,-0.0146909982464,-0.0001557478399999,-0.02780449952,-0.397719,-0.255739,0.813363,-0.070825,-0.01034,-9.812188,0.0221520386000643,359.59148825358585,148.76689449174694,0.0014268749952,0.0014268749952,0.0124213750016,-0.2691957491072,-0.0034856251392,0.0007732495104,-0.963079125248,0.0014268749952,0.0014268749952,0.0124213750016,2.070915,0.0,0.0,-0.001684687888,0.0,0.0,0.0031085363385599,0.0,0.0,0.0,9.615758653954458
2023-09-08 15:46:48.320,0.0493269999999999,0.040225125,-0.0094195,0.089658,0.08966825,0.0706585,48.359257,-4.557322,48.970428625,50.787127875,0.59794075,0.597048125,0.583674875,-0.065748,-0.007886,-9.812568,-0.015221,-0.000456,-0.027928,33.526764,-0.064058,-0.006497,-9.810757,-0.015102,-0.000662,-0.027917,-0.3978796613997714,-0.2558997685430857,0.8135926081225142,-0.0712228231259428,-0.0108270735067428,-9.8115647473408,0.0085943669269623,359.5915956836308,148.74207815136273,0.001428,0.001428,0.012421,-0.269405,-0.003453,0.000888,-0.963021,0.001428,0.001428,0.012421,2.070915,0.0,0.0,-0.00159375,0.0,0.0,0.00338075,0.0,0.0,0.0,9.590942313570253
2023-09-08 15:46:48.585,0.053036999104,0.040742703,-0.0022280642368,0.0889557501696,0.0889676564192,0.0701649376192,48.359257,-4.557322,48.9622111426096,50.7879551716752,0.5837615971744,0.5829310815344,0.5703578000912,-0.0759514439643428,-0.005467875584,-9.792200862061714,0.0017938887478857,-0.0126431577709714,-0.0288280533540571,33.526294571541946,-0.0743399975168,-0.0062282143506285,-9.794923253824,0.0020094244388571,-0.0125349435611428,-0.0288312497792,-0.400718,-0.25874,0.817649,-0.078251,-0.019432,-9.800554,340.6064822754836,359.46904413340536,148.30176019214565,0.0014232678582857,0.0014232678582857,0.0124276249984,-0.2731064812489143,-0.0042006783908571,0.0021694639762285,-0.9619714109677714,0.0014232678582857,0.0014232678582857,0.0124276249984,2.070915,0.0,0.0,1.2812112000000053e-05,0.0,0.0,0.00818983633856,0.0,0.0,0.0,9.15062435435317
2023-09-08 15:46:48.600,0.053247,0.040772,-0.001821,0.088916,0.088928,0.070137,48.359257,-4.557322,48.961746,50.788002,0.582959,0.582132,0.569604,-0.076529,-0.005331,-9.791048,0.002757,-0.013333,-0.028879,33.526268,-0.074922,-0.006213,-9.794027,0.002978,-0.013207,-0.028883,-0.4008350004992,-0.2610560098816,0.8146212370816,-0.0827551442176,-0.0116507168,-9.7988207426048,359.8856949198714,359.4621072219312,148.2768364217165,0.001423,0.001423,0.012428,-0.273316,-0.004243,0.002242,-0.961912,0.001423,0.001423,0.012428,2.070915,0.0,0.0,0.00010375,0.0,0.0,0.00846205,0.0,0.0,0.0,9.125700583924017
2023-09-08 15:46:48.620,0.052772,0.0403405,-0.000781,0.0879125,0.087924,0.069643,48.359257,-4.557322,48.9600665,50.788002,0.5818479999999999,0.581024,0.5690465,-0.078514,-0.007044,-9.790612,0.0041779999999999,-0.013094,-0.028753,33.526884,-0.0785235,-0.0074459999999999,-9.790824,0.004375,-0.0130395,-0.028661,-0.4009910004992,-0.2641440098816,0.8105842370816,-0.0887606442176,-0.0012757168,-9.7965097426048,359.8922839345154,359.44812705173,148.24357622170913,0.0014169999999999,0.0014169999999999,0.012427,-0.2735944999999999,-0.0043755,0.0022215,-0.9618325,0.0014169999999999,0.0014169999999999,0.012427,2.070915,0.0,0.0,0.000225,0.0,0.0,0.008825,0.0,0.0,0.0,9.092440383916651
2023-09-08 15:46:48.625,0.05265325152,0.0402326263808,-0.000521003328,0.0876616282112,0.0876730032128,0.0695195015808,48.359257,-4.557322,48.9596466303744,50.788002,0.5815702535552,0.5807470035455999,0.568907126784,-0.079010243648,-0.0074722445183999,-9.7905030013952,0.0045332454528,-0.0130342507648,-0.0287215004031999,33.5270379980288,-0.0794238634752,-0.0077542460543999,-9.7900232602496,0.0047242455296,-0.012997625536,-0.0286055007103999,-0.40103,-0.264916,0.809575,-0.090262,0.001318,-9.795932,359.8939311670916,359.4446320539163,148.23526127813994,0.0014155000192,0.0014155000192,0.0124267500032,-0.2736641241088,-0.004408624576,0.0022163750656,-0.9618126252544,0.0014155000192,0.0014155000192,0.0124267500032,2.070915,0.0,0.0,0.0002701160891733,0.0,0.0,0.00882769996544,0.0,0.0,0.0,9.084125440347464
2023-09-08 15:46:48.640,0.052297,0.039909,0.000259,0.086909,0.08692,0.069149,48.359257,-4.557322,48.958387,50.788002,0.580737,0.579916,0.568489,-0.080499,-0.008757,-9.790176,0.005599,-0.012855,-0.028627,33.5275,-0.082125,-0.008679,-9.787621,0.005772,-0.012872,-0.028439,-0.405599394496,-0.2659033792128,0.8145077710464,-0.0805843337088,-0.0026491419264,-9.7920473584256,359.8988729491594,359.4341468815288,148.2103160217018,0.001411,0.001411,0.012426,-0.273873,-0.004508,0.002201,-0.961753,0.001411,0.001411,0.012426,2.070915,0.0,0.0,0.0004054666666666,0.0,0.0,0.0088358,0.0,0.0,0.0,9.05918018390932
2023-09-08 15:46:48.665,0.0525357493888,0.0408664975488,0.0009321232767999,0.08723712416,0.0872487491584,0.0693196245632,48.359257,-4.557322,48.9583913749888,50.788002,0.5817832473216,0.5809578723327999,0.5693364978304001,-0.0793527529344,-0.0138857368703999,-9.7878153810432,0.0072171208576,-0.0124743759744,-0.028536375232,33.527688749516805,-0.0788106334848,-0.0126721147776,-9.7881872485504,0.0074238707712,-0.0124007512064,-0.0285814996352,-0.413215,-0.267549,0.822729,-0.064455,-0.009261,-9.785573,359.9100455975624,359.4178176261706,148.16741591661594,0.0014128749951999,0.0014128749951999,0.0124253750016,-0.2742329990784,-0.004670499584,0.002147875136,-0.961649875264,0.0014128749951999,0.0014128749951999,0.0124253750016,2.070915,0.0,0.0,0.0006310494225066,0.0,0.0,0.00884929996544,0.0,0.0,0.0,9.016280078823456
2023-09-08 15:46:48.680,0.052679,0.041441,0.001336,0.087434,0.087446,0.069422,48.359257,-4.557322,48.958394,50.788002,0.582411,0.581583,0.569845,-0.078665,-0.016963,-9.786399,0.008188,-0.012246,-0.028482,33.527802,-0.076822,-0.015068,-9.788527,0.008415,-0.012118,-0.028667,-0.4026388298752,-0.2633343570176,0.8188106082816,-0.0697316475136,-0.0119411364351999,-9.7897703929088,359.91674923236747,359.40802000607084,148.14167567784514,0.001414,0.001414,0.012425,-0.274449,-0.004768,0.002116,-0.961588,0.001414,0.001414,0.012425,2.070915,0.0,0.0,0.0007664,0.0,0.0,0.0088574,0.0,0.0,0.0,8.990539840052662
2023-09-08 15:46:48.705,0.05234000086784,0.04195299868928,0.0012347502592,0.08751949978112,0.0875313747814399,0.06947062487552,48.359257,-4.557322,48.95843787488768,50.78787712531968,0.58309649824512,0.58226562325248,0.570463748416,-0.0724143910016,-0.0133742591872,-9.790583364288,0.009191122432,-0.0113285023488,-0.028597624704,33.5269076272896,-0.0723270115072,-0.0144636265472,-9.7910251186048,0.0092424978816,-0.0113073770752,-0.028563875264,-0.385012,-0.25631,0.81228,-0.078526,-0.016408,-9.796766,359.9298914181492,359.39355285877974,148.0995991974813,0.0014158749952,0.0014158749952,0.0124237500032,-0.2748014990976,-0.0049198746112,0.0020422501888,-0.9614867502592,0.0014158749952,0.0014158749952,0.0124237500032,2.070915,0.0,0.0,0.00099198275584,0.0,0.0,0.00887089996544,0.0,0.0,0.0,8.948463359688816
2023-09-08 15:46:48.720,0.0521366,0.0422602,0.001174,0.0875708,0.0875826,0.0694998,48.359257,-4.557322,48.9584642,50.7878022,0.5835078,0.5826752,0.570835,-0.068664,-0.011221,-9.793094,0.009793,-0.010778,-0.028667,33.526371,-0.06963,-0.014101,-9.792524,0.009739,-0.010821,-0.028502,-0.38595190401024,-0.2562694998272,0.81266332663552,-0.0793315034368,-0.0162890494924799,-9.79795318006528,359.9377767834488,359.38487251114753,148.07435313691727,0.001417,0.001417,0.012423,-0.275013,-0.005011,0.001998,-0.961426,0.001417,0.001417,0.012423,2.070915,0.0,0.0,0.0011273333333333,0.0,0.0,0.008879,0.0,0.0,0.0,8.923217299124786
2023-09-08 15:46:48.880,0.049967,0.045537,0.000526,0.088118,0.088129,0.069811,48.359257,-4.557322,48.958745,50.787003,0.587895,0.587044,0.574795,-0.071796,-0.0120482,-9.8106852,0.005849,-2.360000000000036e-05,-0.0283181999999999,33.527851,-0.0746667999999999,-0.0130394,-9.8102808,0.0056462,0.0001245999999999,-0.0281596,-0.39597750401024,-0.2558374998272,0.81675212663552,-0.0879235034368,-0.01502024949248,-9.81061638006528,72.0083193471853,359.36653786170336,147.80762982412796,0.0014194,0.0014194,0.0124246,-0.2772458,-0.0053318,0.0014628,-0.9607828,0.0014194,0.0014194,0.0124246,2.070915,0.0,0.0,0.0025710666666666,0.0,0.0,0.0089654,0.0,0.0,0.0,8.656493986335477
2023-09-08 15:46:48.905,0.0496320008576,0.04617762336,-0.0003764976895999,0.0884473741568,0.0884583741568,0.0699803745664,48.359257,-4.557322,48.958841874752,50.787003,0.5889718722431999,0.5881164972544,0.5756612477824,-0.0722853737472,-0.01217744966912,-9.81343381796352,0.0052327515776,0.00165677069824,-0.02826370013952,33.528082249408,-0.07545379798528,-0.01287352542464,-9.81305529289728,0.00500670163712,0.0018348456217599,-0.02810610013696,-0.397544,-0.25577,0.817391,-0.089266,-0.014822,-9.812595,27.019456794552127,359.3636730800616,147.76595441319395,0.00141977499904,0.00141977499904,0.01242484999936,-0.27759467410688,-0.00538192487168,0.00137917521408,-0.96068230025728,0.00141977499904,0.00141977499904,0.01242484999936,2.070915,0.0,0.0,0.0027966494225066,0.0,0.0,0.00897889996544,0.0,0.0,0.0,8.614818575401472
2023-09-08 15:46:48.920,0.049431,0.046562,-0.000918,0.088645,0.088656,0.070082,48.359257,-4.557322,48.9589,50.787003,0.589618,0.58876,0.576181,-0.072579,-0.012255,-9.815083,0.004863,0.002665,-0.028231,33.528221,-0.075926,-0.012774,-9.81472,0.004623,0.002861,-0.028074,-0.397602125248,-0.2569283799424,0.8158774935424,-0.0853269831935999,-0.0123743645568,-9.8187341511936,0.0259549881194262,359.36195419934234,147.74094899593064,0.00142,0.00142,0.012425,-0.277804,-0.005412,0.001329,-0.960622,0.00142,0.00142,0.012425,2.070915,0.0,0.0,0.002932,0.0,0.0,0.008987,0.0,0.0,0.0,8.589813158138156
2023-09-08 15:46:48.945,0.049340375232,0.0469138740992,-0.0020173721856,0.0889749991552,0.0889853741568,0.070250749568,48.359257,-4.557322,48.9590237496832,50.787003,0.5907073722112,0.5898456222208001,0.5770534977664,-0.0837514713984,-0.0142899947904,-9.8152448745856,0.003203629248,0.0041981210752,-0.0282978748287999,33.528452249408,-0.083719730048,-0.013520873088,-9.815691872512,0.0030023791488,0.00429849632,-0.028330249344,-0.397699,-0.258859,0.813355,-0.078762,-0.008295,-9.828966,0.0280677645802495,359.37047692472663,147.7003049063877,0.0014218749952,0.0014218749952,0.0124287499904,-0.278144624128,-0.0053451251711999,0.0012927500928,-0.9605232502528,0.0014218749952,0.0014218749952,0.0124287499904,2.070915,0.0,0.0,0.002977833216,0.0,0.0,0.00803016911616,0.0,0.0,0.0,8.549169068595205
2023-09-08 15:46:48.960,0.049286,0.047125,-0.002677,0.089173,0.089183,0.070352,48.359257,-4.557322,48.959098,50.787003,0.591361,0.590497,0.577577,-0.090455,-0.015511,-9.815342,0.002208,0.005118,-0.028338,33.528591,-0.088396,-0.013969,-9.816275,0.00203,0.005161,-0.028484,-0.3977676252928,-0.2576792449664,0.8118486185728,-0.0775747449344,-0.0087367518848,-9.8263642388992,0.0293354391106981,359.3755905948664,147.67591828618328,0.001423,0.001423,0.012431,-0.278349,-0.005305,0.001271,-0.960464,0.001423,0.001423,0.012431,2.070915,0.0,0.0,0.0030053333333333,0.0,0.0,0.0074560666666666,0.0,0.0,0.0,8.524782448390795
2023-09-08 15:46:48.985,0.0488044387328,0.0471181250176,-0.0038279345536,0.0888748757632,0.0888848757632,0.0702107503616,48.359257,-4.557322,48.959057375104,50.787003,0.5914522497664,0.5905869997696,0.5778260618624,-0.0771887839615999,-0.0125666325376,-9.820016988032,0.0007430037504,0.0060136227072,-0.0285217495296,33.5283360006528,-0.076261656064,-0.012537753664,-9.8202612397952,0.0006243785984,0.0061341225088,-0.0285327498752,-0.397882,-0.255713,0.809338,-0.075596,-0.009473,-9.822028,0.0281895264539803,359.3863335260231,147.63391342536048,0.0014248749952,0.0014248749952,0.0124303750016,-0.2787014990976,-0.00521125024,0.0012566250368,-0.9603627502592,0.0014248749952,0.0014248749952,0.0124303750016,2.070915,0.0,0.0,0.0030511665493333,0.0,0.0,0.0064992357828266,0.0,0.0,0.0,8.482777587567995
2023-09-08 15:46:49.000,0.0485155,0.047114,-0.0045185,0.088696,0.088706,0.070126,48.359257,-4.557322,48.959033,50.787003,0.591507,0.590641,0.5779755,-0.069229,-0.0108,-9.822822,-0.000136,0.006551,-0.028632,33.528183,-0.068981,-0.011679,-9.822653,-0.000219,0.006718,-0.028562,-0.3984437523968,-0.2562758774016,0.8101418159296,-0.0750529976831999,-0.0088015596352,-9.8248682621184,0.0275019741662795,359.39277932872034,147.60871033681445,0.001426,0.001426,0.01243,-0.278913,-0.005155,0.001248,-0.960302,0.001426,0.001426,0.01243,2.070915,0.0,0.0,0.0030786666666666,0.0,0.0,0.0059251333333333,0.0,0.0,0.0,8.457574499021973
2023-09-08 15:46:49.040,0.047745,0.047103,-0.00636,0.088219,0.088229,0.0699,48.359257,-4.557322,48.958968,50.787003,0.591653,0.590785,0.578374,-0.0716175,-0.0117035,-9.8277205,-0.0029965,0.0072235,-0.028954,33.5285395,-0.0712335,-0.011286,-9.827719,-0.002998,0.007299,-0.0289085,-0.3999417523968,-0.2577768774016,0.8122853159296001,-0.0736049976832,-0.0070110596352,-9.8324422621184,0.0156417478070714,359.4128614994397,147.54024188029632,0.0014234999999999,0.0014234999999999,0.0124285,-0.2794875,-0.004957,0.001301,-0.9601355,0.0014234999999999,0.0014234999999999,0.0124285,2.070915,0.0,0.0,0.003152,0.0,0.0,0.0043942,0.0,0.0,0.0,8.38910604250384
2023-09-08 15:46:49.065,0.0475831254144,0.0476042487168,-0.0075306220032,0.0885489991552,0.0885583741568,0.0700693745664,48.359257,-4.557322,48.9591854994432,50.787003,0.5927354972288,0.5918637472384,0.5792452477696,-0.0731103086784,-0.0122681860544,-9.8307820546624,-0.0047843079232,0.007643811424,-0.0291552494848,33.528762311929604,-0.072641308896,-0.0110403756288,-9.8308852418944,-0.0047348705536,0.0076621240704,-0.0291250619456,-0.400878,-0.258715,0.813625,-0.0727,-0.005892,-9.837176,0.0082291253089285,359.4254128240078,147.497449204522,0.001421937504,0.001421937504,0.0124275625024,-0.2798465615808,-0.0048332503168,0.0013341249151999,-0.9600314377664,0.001421937504,0.001421937504,0.0124275625024,2.070915,0.0,0.0,0.0031978332159999,0.0,0.0,0.00343736911616,0.0,0.0,0.0,8.346313366729532
2023-09-08 15:46:49.080,0.047486,0.047905,-0.008233,0.088747,0.088756,0.070171,48.359257,-4.557322,48.959316,50.787003,0.593385,0.592511,0.579768,-0.074006,-0.012607,-9.832619,-0.005857,0.007896,-0.029276,33.528896,-0.073486,-0.010893,-9.832785,-0.005777,0.00788,-0.029255,-0.39935924352,-0.2611603854336,0.8210657817472,-0.0812954116736,-0.0055222484224,-9.8289263398016,0.0037815214478634,359.43294367015903,147.4717734237782,0.001421,0.001421,0.012427,-0.280062,-0.004759,0.001354,-0.959969,0.001421,0.001421,0.012427,2.070915,0.0,0.0,0.0032253333333333,0.0,0.0,0.0028632666666666,0.0,0.0,0.0,8.320637585985708
2023-09-08 15:46:49.105,0.0477241243904,0.0483418738816,-0.0092495598976,0.0890773116544,0.0890866241536,0.0703391245696,48.359257,-4.557322,48.9595653743616,50.787003,0.5944862471808,0.5936078721920001,0.5806486227456,-0.0799866096896,-0.0119332517248,-9.8308021296512,-0.0069688721536,0.0077341254144,-0.0289997507071999,33.52878662528,-0.0814366046464,-0.01239299616,-9.8302181315712,-0.0071701214335999,0.0077943752192,-0.0289975006592,-0.396828,-0.265236,0.833467,-0.095621,-0.004906,-9.815177,224.9908869603881,359.4451548019072,147.42973275318485,0.0014222499968,0.0014222499968,0.0124263750016,-0.2804144990975999,-0.0046265003392,0.001428999808,-0.9598665002624,0.0014222499968,0.0014222499968,0.0124263750016,2.070915,0.0,0.0,0.0032711665493333,0.0,0.0,0.0019064357828266,0.0,0.0,0.0,8.27859691539237
2023-09-08 15:46:49.120,0.047867,0.048604,-0.0098595,0.0892755,0.089285,0.07044,48.359257,-4.557322,48.959715,50.787003,0.5951470000000001,0.594266,0.581177,-0.083575,-0.011529,-9.829712,-0.007636,0.007637,-0.028834,33.528721,-0.086207,-0.013293,-9.828678,-0.008006,0.007743,-0.028843,-0.3968246249856,-0.266404129984,0.8334626874815999,-0.094276619264,-0.0066816325759999,-9.8170874456512,359.98407177329534,359.452481530973,147.4045081786298,0.001423,0.001423,0.012426,-0.280626,-0.004547,0.001474,-0.959805,0.001423,0.001423,0.012426,2.070915,0.0,0.0,0.0032986666666666,0.0,0.0,0.0013323333333333,0.0,0.0,0.0,8.25337234083733
2023-09-08 15:46:49.160,0.048248,0.049303,-0.011486,0.089804,0.089814,0.070709,48.359257,-4.557322,48.960114,50.787003,0.596909,0.596021,0.582586,-0.0788875,-0.0124074999999999,-9.832441,-0.0086955,0.006713,-0.0289015,33.5281695,-0.080237,-0.013142,-9.8317555,-0.008851,0.00662,-0.0289025,-0.3968156249856,-0.269519129984,0.8334511874816,-0.090691619264,-0.0114166325759999,-9.8221819456512,359.96080968681304,359.4683238140084,147.336354848899,0.001426,0.001426,0.0124284999999999,-0.281184,-0.004344,0.001626,-0.959643,0.001426,0.001426,0.012432,2.070915,0.0,0.0,0.003372,0.0,0.0,-0.0001986,0.0,0.0,0.0,8.185219011106511
2023-09-08 15:46:49.185,0.0484392495104,0.049871748544,-0.0121853732096,0.090135249152,0.0901452491519999,0.0708764995712,48.359257,-4.557322,48.9604071242496,50.787003,0.5980283721344,0.5971359971456001,0.58347662272,-0.07595782,-0.0129565610944,-9.8341466206336,-0.0093576858048,0.0061355014784,-0.028943687392,33.527824813382395,-0.076505759552,-0.0130476252416,-9.833678932576,-0.009379123648,0.0059181267968,-0.0289396874048,-0.39681,-0.271466,0.833444,-0.088451,-0.014376,-9.825366,359.946270919981,359.4782252155578,147.29375912686257,0.0014278749951999,0.0014278749951999,0.012430062496,-0.2815502490624,-0.0042321252864,0.001729124736,-0.9595355002752,0.0014278749951999,0.0014278749951999,0.0124313750016,2.070915,0.0,0.0,0.003417833216,0.0,0.0,-0.00115543088384,0.0,0.0,0.0,8.142623289070087
2023-09-08 15:46:49.200,0.048554,0.050213,-0.012605,0.090334,0.090344,0.070977,48.359257,-4.557322,48.960583,50.787003,0.5987,0.597805,0.584011,-0.0742,-0.013286,-9.83517,-0.009755,0.005789,-0.028969,33.527618,-0.074267,-0.012991,-9.834833,-0.009696,0.005497,-0.028962,-0.3992628854656,-0.2701782445055999,0.8321404944384,-0.0826201001216,-0.0161126324096,-9.8281736369792,359.9375476003308,359.4841660970437,147.26820151916817,0.001429,0.001429,0.012431,-0.28177,-0.004165,0.001791,-0.959471,0.001429,0.001429,0.012431,2.070915,0.0,0.0,0.0034453333333333,0.0,0.0,-0.0017295333333333,0.0,0.0,0.0,8.117065681375692
2023-09-08 15:46:49.220,0.04841,0.0496625,-0.0126959999999999,0.0893539999999999,0.0893635,0.0705005,48.359257,-4.557322,48.9589075,50.7875025,0.5975550000000001,0.5966635,0.5834554999999999,-0.080507,-0.0136055,-9.8323295,-0.0092715,0.0051415,-0.0290865,33.527137499999995,-0.080705,-0.014121,-9.8322125,-0.0092859999999999,0.0049385,-0.0290085,-0.4025333854656,-0.2684612445056,0.8304024944384001,-0.0748456001215999,-0.0184281324096,-9.8319171369792,359.9272343600184,359.4900389144438,147.23379540357058,0.0014234999999999,0.0014234999999999,0.01243,-0.2820585,-0.0040905,0.001864,-0.9593865,0.0014234999999999,0.0014234999999999,0.01243,2.070915,0.0,0.0,0.003482,0.0,0.0,-0.002495,0.0,0.0,0.0,8.082659565778101
2023-09-08 15:46:49.225,0.0483740004608,0.0495248767616,-0.0127187497088,0.089109003136,0.0891183781376,0.0703813765248,48.359257,-4.557322,48.9584886303616,50.7876273734016,0.597268753664,0.5963781286528,0.5833166267776,-0.0820837298176,-0.0136853739776,-9.8316193840896,-0.0091506265472,0.004979627072,-0.029115874624,33.5270173765376,-0.0823144793984,-0.014403496384,-9.8315573833856,-0.009183501312,0.0047988767872,-0.0290201248512,-0.403351,-0.268032,0.829968,-0.072902,-0.019007,-9.832853,359.9246560829427,359.49150710000083,147.22519398477073,0.0014221250176,0.0014221250176,0.0124297500032,-0.2821306240768,-0.0040718752384,0.0018822497664,-0.9593653752704,0.0014221250176,0.0014221250176,0.0124297500032,2.070915,0.0,0.0,0.00347290011648,0.0,0.0,-0.00257239900928,0.0,0.0,0.0,8.074058146978246
2023-09-08 15:46:49.240,0.048266,0.049112,-0.012787,0.088374,0.088383,0.070024,48.359257,-4.557322,48.957232,50.788002,0.59641,0.595522,0.5829,-0.086814,-0.013925,-9.829489,-0.008788,0.004494,-0.029204,33.526657,-0.087143,-0.015251,-9.829592,-0.008876,0.00438,-0.029055,-0.403456000448,-0.2738535248384,0.8269278620288,-0.0735920029439999,-0.0200731295488,-9.8281358548736,359.91692111970605,359.4959117318439,147.19938928797296,0.001418,0.001418,0.012429,-0.282347,-0.004016,0.001937,-0.959302,0.001418,0.001418,0.012429,2.070915,0.0,0.0,0.0034456,0.0,0.0,-0.0028046,0.0,0.0,0.0,8.048253450180482
2023-09-08 15:46:49.265,0.048597249152,0.049777623296,-0.0132288738688,0.0887039991552,0.0887129991552,0.0701927495679999,48.359257,-4.557322,48.9575419992064,50.788002,0.5974999972096,0.5966076222208,0.5837768727552,-0.0783352717056,-0.0129243775616,-9.8308033716352,-0.0079111272448,0.0035321274624,-0.0290815003136,33.5269644992128,-0.0780880231807999,-0.0133828797824,-9.8303676230144,-0.0076753780736,0.0034931272704,-0.0289568752512,-0.403631,-0.283556,0.821861,-0.074742,-0.02185,-9.820274,359.9060707592377,359.50117576811067,147.1568114708218,0.0014198749951999,0.0014198749951999,0.0124283750016,-0.2827038740864,-0.003944125184,0.0020169997952,-0.9591970002688,0.0014198749951999,0.0014198749951999,0.0124283750016,2.070915,0.0,0.0,0.0034001001164799,0.0,0.0,-0.0031915990092799,0.0,0.0,0.0,8.005675633029313
2023-09-08 15:46:49.280,0.048796,0.050177,-0.013494,0.088902,0.088911,0.070294,48.359257,-4.557322,48.957728,50.788002,0.598154,0.597259,0.584303,-0.073248,-0.012324,-9.831592,-0.007385,0.002955,-0.029008,33.527149,-0.072655,-0.012262,-9.830833,-0.006955,0.002961,-0.028898,-0.4002848607232,-0.2731677056768,0.817062854528,-0.0795573955456,-0.0203889937664,-9.8182572413952,359.89956049851355,359.5043342114323,147.1312646061319,0.001421,0.001421,0.012428,-0.282918,-0.003901,0.002065,-0.959134,0.001421,0.001421,0.012428,2.070915,0.0,0.0,0.0033728,0.0,0.0,-0.0034238,0.0,0.0,0.0,7.980128768339426
2023-09-08 15:46:49.305,0.0494903732224,0.0507057486464,-0.0137039994624,0.0892319991552,0.0892409991552,0.0704621245696,48.359257,-4.557322,48.9580492491776,50.788002,0.5992564971776,0.5983571221888,0.5851867477376,-0.0816304785408,-0.0127196239872,-9.8272501361152,-0.0053587551872,0.0019912524672,-0.0289192502272,33.527039625280004,-0.0813968526208,-0.0118070011648,-9.8267155105408,-0.005145629632,0.001886002752,-0.0290229996799999,-0.394708,-0.255854,0.809066,-0.087583,-0.017954,-9.814896,359.8928282616554,359.5071273735331,147.08721858838933,0.0014228749951999,0.0014228749951999,0.0124273750016,-0.283286749056,-0.0038597501056,0.0021156248704,-0.9590252502784,0.0014228749951999,0.0014228749951999,0.0124273750016,2.070915,0.0,0.0,0.00332730011648,0.0,0.0,-0.0038107990092799,0.0,0.0,0.0,7.936082750596853
2023-09-08 15:46:49.320,0.049907,0.051023,-0.01383,0.08943,0.089439,0.070563,48.359257,-4.557322,48.958242,50.788002,0.599918,0.599016,0.585717,-0.08666,-0.012957,-9.824645,-0.004143,0.001413,-0.028866,33.526974,-0.086642,-0.011534,-9.824245,-0.00406,0.001241,-0.029098,-0.3958176297344,-0.2616526497408,0.8106563817856,-0.0791094638464,-0.0152191133312,-9.8196607703296,359.88878889196513,359.50880328223434,147.06079079733084,0.001424,0.001424,0.012427,-0.283508,-0.003835,0.002146,-0.95896,0.001424,0.001424,0.012427,2.070915,0.0,0.0,0.0033,0.0,0.0,-0.004043,0.0,0.0,0.0,7.909654959538358
2023-09-08 15:46:49.345,0.050460123584,0.0517523731328,-0.0141199992576,0.0897606241535999,0.0897696241536,0.0707311245696,48.359257,-4.557322,48.9585532492032,50.788002,0.6010323721472,0.6001259971584,0.5866069977216001,-0.081372513536,-0.0145438709376,-9.8280862411904,-0.0019455056256,0.0004880023679999,-0.0288966249216,33.526652125824,-0.0806257654016,-0.0143033679104,-9.827548116544,-0.0017025060352,0.0004278770816,-0.0288342506752,-0.397667,-0.271317,0.813307,-0.064987,-0.010661,-9.827602,359.8874639304558,359.5097343362679,147.01986022962367,0.0014258749952,0.0014258749952,0.0124307499904,-0.2838504991232,-0.0038231250304,0.0021559999744,-0.9588587502592,0.0014258749952,0.0014258749952,0.0124307499904,2.070915,0.0,0.0,0.00321925020672,0.0,0.0,-0.00409249987328,0.0,0.0,0.0,7.8687243918311935
2023-09-08 15:46:49.360,0.050792,0.05219,-0.014294,0.089959,0.089968,0.070832,48.359257,-4.557322,48.95874,50.788002,0.601701,0.600792,0.587141,-0.0782,-0.015496,-9.830151,-0.000627,-6.7e-05,-0.028915,33.526459,-0.077016,-0.015965,-9.82953,-0.000288,-6e-05,-0.028676,-0.3930312302208,-0.2703419958399999,0.8098851104,-0.0772038021248,-0.0152982697856,-9.8245536119936,359.88666894812314,359.5102929725017,146.99530172134735,0.001427,0.001427,0.012433,-0.284056,-0.003816,0.002162,-0.958798,0.001427,0.001427,0.012433,2.070915,0.0,0.0,0.0031708,0.0,0.0,-0.0041221999999999,0.0,0.0,0.0,7.844165883554865
2023-09-08 15:46:49.385,0.0510409056127999,0.0523770307712,-0.0142766562944,0.089780094208,0.0897895629568,0.07071090656,48.359257,-4.557322,48.958731406272,50.7878459066496,0.5983903834752,0.5974957584384,0.5840677266176,-0.0782849997824,-0.012646007296,-9.826566634176,0.0025361169023999,-0.0005244988288,-0.0288043752832,33.5269546237312,-0.0784028714496,-0.0132050070656,-9.826792507008,0.0028826168832,-0.0005668737024,-0.0287922497023999,-0.385305,-0.268717,0.804182,-0.097565,-0.023027,-9.819473,359.89261337002984,359.51007811387854,146.95265228465516,0.0014282499967999,0.0014282499967999,0.0124323750016,-0.2844128740864,-0.0038322499584,0.0021145001216,-0.958691750272,0.0014282499967999,0.0014282499967999,0.0124323750016,2.070915,0.0,0.0,0.00309005020672,0.0,0.0,-0.00417169987328,0.0,0.0,0.0,7.801516446862678
2023-09-08 15:46:49.400,0.05119025,0.05248925,-0.01426625,0.08967275,0.0896825,0.07063825,48.359257,-4.557322,48.95872625,50.78775225,0.596404,0.595518,0.58222375,-0.078336,-0.010936,-9.824416,0.004434,-0.000799,-0.028738,33.527252,-0.079235,-0.011549,-9.82515,0.004785,-0.000871,-0.028862,-0.3872033830997333,-0.2690321263445333,0.8063636343082666,-0.0972414986197333,-0.0216758692352,-9.817952493512534,359.8961800475223,359.5099491978246,146.9270624479473,0.001429,0.001429,0.012432,-0.284627,-0.003842,0.002086,-0.958628,0.001429,0.001429,0.012432,2.070915,0.0,0.0,0.0030416,0.0,0.0,-0.0042014,0.0,0.0,0.0,7.775926610154812
2023-09-08 15:46:49.505,0.0522356556128,0.0532747807712,-0.0141934062944,0.088921344208,0.0889330629568,0.0701296565599999,48.359257,-4.557322,48.958690156272006,50.7870966566496,0.5824993834751999,0.5816737584384,0.5693159766176,-0.0746150647679999,-0.0121362805184,-9.818601628544,0.014093994112,-0.0017026556992,-0.0277359068608,33.528280999372804,-0.073450159776,-0.0130603428288,-9.8197050970688,0.0143321191807999,-0.001655218272,-0.0277555631744,-0.400492,-0.271238,0.821635,-0.094977,-0.012218,-9.807309,359.9738874011224,359.50433421485485,146.75510359449677,0.0014237500032,0.0014237500032,0.0124276250026666,-0.2860619991253333,-0.0040799998549333,0.001456000384,-0.9582010002602668,0.0014237500032,0.0014237500032,0.0124276250026666,2.070915,0.0,0.0,0.00270245020672,0.0,0.0,-0.00440929987328,0.0,0.0,0.0,7.603967756704293
2023-09-08 15:46:49.520,0.052385,0.053387,-0.014183,0.088814,0.088826,0.070057,48.359257,-4.557322,48.958685,50.787003,0.580513,0.579696,0.567472,-0.0740835,-0.01230775,-9.817771,0.015474,-0.00183175,-0.02759275,33.528428000000005,-0.07262375,-0.01327625,-9.81892725,0.0156959999999999,-0.00176725,-0.0275974999999999,-0.3993523701376,-0.2747862651392,0.8200108680704,-0.0840449533568,-0.0101862413312,-9.8102936377344,359.98498850576755,359.5035320705192,146.73053792421743,0.001423,0.001423,0.012427,-0.286267,-0.004114,0.001366,-0.95814,0.001423,0.001423,0.012427,2.070915,0.0,0.0,0.002654,0.0,0.0,-0.004439,0.0,0.0,0.0,7.579402086424949
2023-09-08 15:46:49.545,0.0524231249024,0.0536744992639999,-0.0143867494784,0.089145249152,0.089157249152,0.070225749568,48.359257,-4.557322,48.9590343741056,50.787003,0.5815929972352,0.5807716222464,0.5683351227904,-0.0731975647679999,-0.0125935305184,-9.816386628544,0.017773994112,-0.0020469056992,-0.0273541568607999,33.5286729993728,-0.071246409776,-0.0136360928288,-9.8176308470688,0.0179691191808,-0.001953968272,-0.0273340631744,-0.397453,-0.2807,0.817304,-0.065825,-0.0068,-9.815268,135.01235021411833,359.501669962452,146.6917201329711,0.0014248749952,0.0014248749952,0.0124313749888,-0.2865907491712,-0.0041958747903999,0.0011478755583999,-0.958043125248,0.0014248749952,0.0014248749952,0.0124313749888,2.070915,0.0,0.0,0.00255000026624,0.0,0.0,-0.00444299998976,0.0,0.0,0.0,7.540584295178633
2023-09-08 15:46:49.560,0.052446,0.053847,-0.014509,0.089344,0.089356,0.070327,48.359257,-4.557322,48.959244,50.787003,0.582241,0.581417,0.568853,-0.072666,-0.012765,-9.815556,0.019154,-0.002176,-0.027211,33.52882,-0.07042,-0.013852,-9.816853,0.019333,-0.002066,-0.027176,-0.3949352392576,-0.2819990055424,0.8201180120064,-0.0718044005119999,-0.013079401792,-9.811127982336,0.027845748843358,359.5005526899845,146.66842929922524,0.001426,0.001426,0.012434,-0.286785,-0.004245,0.001017,-0.957985,0.001426,0.001426,0.012434,2.070915,0.0,0.0,0.0024876,0.0,0.0,-0.0044454,0.0,0.0,0.0,7.517293461432757
2023-09-08 15:46:49.585,0.0526416244992,0.0539038748544,-0.0144333751935999,0.089675249152,0.0896878741504,0.0704951245696,48.359257,-4.557322,48.9596071240704,50.787003,0.5833328722048,0.5825051222144,0.5697223727744,-0.0764259903744,-0.0163906157184,-9.8094222657024,0.0197727484159999,-0.0020578753024,-0.0267572511616,33.5296974977536,-0.0770974829055999,-0.016814492416,-9.8101667671168,0.0198323737216,-0.0020809999615999,-0.0267397511168,-0.390739,-0.284164,0.824808,-0.08177,-0.023545,-9.804228,0.0557415600803303,359.4987263916878,146.629754747061,0.0014278749951999,0.0014278749951999,0.0124327500032,-0.287106874176,-0.0043299997824,0.0007901255807999,-0.957888125248,0.0014278749951999,0.0014278749951999,0.0124327500032,2.070915,0.0,0.0,0.00238360026624,0.0,0.0,-0.00444939998976,0.0,0.0,0.0,7.478618909268533
2023-09-08 15:46:49.600,0.052759,0.053938,-0.014388,0.089874,0.089887,0.070596,48.359257,-4.557322,48.959825,50.787003,0.583988,0.583158,0.570244,-0.078682,-0.018566,-9.805742,0.020144,-0.001987,-0.026485,33.530224,-0.081104,-0.018592,-9.806155,0.020132,-0.00209,-0.026478,-0.393319011008,-0.2828548694144,0.8204846065536,-0.0841572601856,-0.0223359948416,-9.8039077486336,0.0724791610840491,359.4976306052293,146.60654985735113,0.001429,0.001429,0.012432,-0.2873,-0.004381,0.000654,-0.95783,0.001429,0.001429,0.012432,2.070915,0.0,0.0,0.0023212,0.0,0.0,-0.0044518,0.0,0.0,0.0,7.455414019558646
2023-09-08 15:46:49.620,0.052329,0.053158,-0.01436,0.0890064999999999,0.0890185,0.070176,48.359257,-4.557322,48.959962,50.787003,0.5831085,0.5822805,0.5698495,-0.079326,-0.0194174999999999,-9.8058965,0.019707,-0.001779,-0.0265945,33.53004249999999,-0.080101,-0.0192415,-9.8056905,0.0196165,-0.0017805,-0.0265685,-0.396759011008,-0.2811093694144,0.8147201065535999,-0.0873402601856,-0.0207239948416,-9.8034807486336,0.0941369657399942,359.4968857600956,146.57483664339065,0.001424,0.001424,0.0124315,-0.2875645,-0.0044415,0.0004759999999999,-0.9577505,0.001424,0.001424,0.0124315,2.070915,0.0,0.0,0.002238,0.0,0.0,-0.004455,0.0,0.0,0.0,7.423700805598173
2023-09-08 15:46:49.625,0.052221501376,0.052963002496,-0.0143530000895999,0.088789627776,0.0888013777792,0.070071001344,48.359257,-4.557322,48.9599962495616,50.787003,0.5828886278144,0.582061127808,0.5697508762624001,-0.0794869979392,-0.0196303722752,-9.8059351245056,0.0195977513983999,-0.0017270006655999,-0.0266218746496,33.5299971255808,-0.0798502532096,-0.0194038729216,-9.8055743764864,0.0194876266496,-0.0017031259904,-0.0265911247104,-0.397619,-0.280673,0.813279,-0.088136,-0.020321,-9.803374,0.0995513475990055,359.4966995511957,146.5669084413828,0.001422750016,0.001422750016,0.0124313750016,-0.2876306241536,-0.0044566248064,0.0004315005696,-0.9577306252544,0.001422750016,0.001422750016,0.0124313750016,2.070915,0.0,0.0,0.00221595028224,0.0,0.0,-0.0044506250559999,0.0,0.0,0.0,7.415772603590312
2023-09-08 15:46:49.640,0.051899,0.052378,-0.014332,0.088139,0.08815,0.069756,48.359257,-4.557322,48.960099,50.787003,0.582229,0.581403,0.569455,-0.07997,-0.020269,-9.806051,0.01927,-0.001571,-0.026704,33.529861,-0.079098,-0.019891,-9.805226,0.019101,-0.001471,-0.026659,-0.398691504576,-0.2783037398912,0.8164087633536,-0.0873094964736,-0.0232763876095999,-9.8029963733888,0.1157947703959393,359.4961409149619,146.54312342943012,0.001419,0.001419,0.012431,-0.287829,-0.004502,0.000298,-0.957671,0.001419,0.001419,0.012431,2.070915,0.0,0.0,0.0021498,0.0,0.0,-0.0044375,0.0,0.0,0.0,7.391987591637644
2023-09-08 15:46:49.665,0.051973999808,0.0523167501568,-0.0144969995775999,0.0884689991552,0.0884806241536,0.0699253745664,48.359257,-4.557322,48.9604808740224,50.787003,0.583297747264,0.5824679972736,0.5703143728,-0.0794893762303999,-0.0216671214208,-9.808125994688,0.0172750051072,-0.0016572497792,-0.0265621253632,33.5295035009152,-0.079979247744,-0.021934744768,-9.8081297425664,0.0170035053696,-0.0015909996928,-0.026521500352,-0.400479,-0.274355,0.821625,-0.085932,-0.028202,-9.802367,0.1374238717914866,359.49495919253474,146.5031597255271,0.0014208749952,0.0014208749952,0.0124297500032,-0.2881621241472,-0.0045663748352,0.0001217504512,-0.957571000256,0.0014208749952,0.0014208749952,0.0124297500032,2.070915,0.0,0.0,0.00203955028224,0.0,0.0,-0.004415625056,0.0,0.0,0.0,7.352023887734617
2023-09-08 15:46:49.680,0.052019,0.05228,-0.014596,0.088667,0.088679,0.070027,48.359257,-4.557322,48.96071,50.787003,0.583939,0.583107,0.57083,-0.079201,-0.022506,-9.809371,0.016078,-0.001709,-0.026477,33.529289,-0.080508,-0.023161,-9.809872,0.015745,-0.001663,-0.026439,-0.399220869632,-0.2755876302592,0.8230290059904001,-0.0857418741888,-0.0220673488256,-9.8047722602624,0.1504014212218411,359.49425015423805,146.47918133949355,0.001422,0.001422,0.012429,-0.288362,-0.004605,1.6e-05,-0.957511,0.001422,0.001422,0.012429,2.070915,0.0,0.0,0.0019734,0.0,0.0,-0.0044025,0.0,0.0,0.0,7.328045501701069
2023-09-08 15:46:49.705,0.051923166912,0.051839376128,-0.0146184999424,0.0889980408192,0.0890100408192,0.0701953329024,48.359257,-4.557322,48.9610872907008,50.787003,0.5850327472,0.584196580544,0.5717022894335999,-0.0873772290688,-0.0163266408192,-9.8066622569344,0.013834255744,-0.0015452504192,-0.0262388756096,33.5287383764096,-0.0873136075776,-0.0160410182272,-9.805912635136,0.0134631308416,-0.0015486252928,-0.0262271255424,-0.397124,-0.277642,0.825369,-0.085425,-0.011843,-9.808781,0.1667664863505912,359.4933191002045,146.44043516778828,0.0014238749952,0.0014232499967999,0.0124283750016,-0.2886851241728,-0.0046537498752,-0.0001171246592,-0.9574128752512,0.0014238749952,0.0014232499967999,0.0124283750016,2.070915,0.0,0.0,0.00186315028224,0.0,0.0,-0.004380625056,0.0,0.0,0.0,7.289299329995799
2023-09-08 15:46:49.720,0.0518656666666666,0.051575,-0.014632,0.0891966666666666,0.0892086666666666,0.0702963333333333,48.359257,-4.557322,48.96131366666667,50.787003,0.585689,0.5848503333333334,0.5722256666666666,-0.092283,-0.012619,-9.805037,0.012488,-0.001447,-0.026096,33.528408,-0.091397,-0.011769,-9.803537,0.012094,-0.00148,-0.0261,-0.3953789300544,-0.2753790528448,0.8244693711616,-0.0863705665344,-0.0136675702848,-9.8069854923392,0.1765855924593197,359.4927604639707,146.41718730606038,0.001425,0.001424,0.012428,-0.288879,-0.004683,-0.000197,-0.957354,0.001425,0.001424,0.012428,2.070915,0.0,0.0,0.001797,0.0,0.0,-0.0043675,0.0,0.0,0.0,7.266051468267904
2023-09-08 15:46:49.785,0.0516165002453333,0.050429376128,-0.0146904999424,0.0900573741525333,0.0900693741525333,0.0707339995690666,48.359257,-4.557322,48.962294624034136,50.787003,0.5885327471999999,0.5876832472106667,0.5744936227669333,-0.0869391927616,-0.0165043711743999,-9.8011280663488,0.0036861961664,-0.0017459997056,-0.0257766878144,33.5269325014528,-0.0868242545024,-0.0167073701376,-9.800282940704,0.0031516338048,-0.0018066246784,-0.0258367502592,-0.387817,-0.265573,0.820571,-0.090468,-0.021574,-9.799205,0.1892479472641492,359.4891759002943,146.32007821737335,0.001429062496,0.0014288749952,0.012432062496,-0.2896890617024,-0.0047447499392,-0.0002896249088,-0.9571086252416,0.001429062496,0.0014288749952,0.012432062496,2.070915,0.0,0.0,0.00151035028224,0.0,0.0,-0.004310625056,0.0,0.0,0.0,7.168942379580869
2023-09-08 15:46:49.800,0.051559,0.050165,-0.014704,0.090256,0.090268,0.070835,48.359257,-4.557322,48.962521,50.787003,0.589189,0.588337,0.575017,-0.085706,-0.017401,-9.800226,0.001655,-0.001815,-0.025703,33.526592,-0.085769,-0.017847,-9.799532,0.001088,-0.001882,-0.025776,-0.3902627604352,-0.265454874496,0.819264119424,-0.0823315902848,-0.0187986131584,-9.8004897554816,0.1921700444868781,359.4883486889482,146.29766830999608,0.00143,0.00143,0.012433,-0.289876,-0.004759,-0.000311,-0.957052,0.00143,0.00143,0.012433,2.070915,0.0,0.0,0.0014442,0.0,0.0,-0.0042975,0.0,0.0,0.0,7.146532472203603
2023-09-08 15:46:49.820,0.0509125,0.0491825,-0.014377,0.089478,0.0894895,0.070461,48.359257,-4.557322,48.962117000000006,50.787003,0.5884244999999999,0.5875745,0.5747005,-0.0825055,-0.015441,-9.797988,-0.0008144999999999,-0.001545,-0.0256395,33.52696,-0.082339,-0.015588,-9.7976085,-0.0012225,-0.0015455,-0.0256279999999999,-0.3935237604352,-0.265297374496,0.817521619424,-0.0714830902848,-0.0150981131584,-9.8022027554816,0.1877582694643707,359.4879476184916,146.26770261731076,0.0014255,0.0014255,0.0124319999999999,-0.2901265,-0.0047515,-0.000272,-0.9569765,0.0014255,0.0014255,0.0124319999999999,2.070915,0.0,0.0,0.001356,0.0,0.0,-0.00428,0.0,0.0,0.0,7.11656677951828
2023-09-08 15:46:49.825,0.0507508770688,0.048936878144,-0.0142952510464,0.0892835024896,0.0892948774912,0.0703675011967999,48.359257,-4.557322,48.9620160012928,50.787003,0.5882333774463999,0.58738387744,0.5746213760128001,-0.0817053852416,-0.014951006272,-9.7974285071616,-0.0014318670976,-0.001477500864,-0.0256236252032,33.5270519988224,-0.081481510976,-0.0150232572288,-9.7971276311552,-0.0018001176064,-0.0014613760767999,-0.0255910004736,-0.394339,-0.265258,0.817086,-0.068771,-0.014173,-9.802631,0.186655339826424,359.4878473521608,146.26021129002962,0.0014243750144,0.0014243750144,0.0124317500032,-0.2901891241984,-0.004749625024,-0.0002622501248,-0.9569576252416,0.0014243750144,0.0014243750144,0.0124317500032,2.070915,0.0,0.0,0.0013401252032,0.0,0.0,-0.0042096259008,0.0,0.0,0.0,7.109075452237136
2023-09-08 15:46:49.840,0.050266,0.0482,-0.01405,0.0887,0.088711,0.070087,48.359257,-4.557322,48.961713,50.787003,0.58766,0.586812,0.574384,-0.079305,-0.013481,-9.79575,-0.003284,-0.001275,-0.025576,33.527328,-0.078909,-0.013329,-9.795685,-0.003533,-0.001209,-0.02548,-0.3967907604608,-0.2628047395328,0.8157881194624,-0.0784730413952,-0.0141238747904,-9.7972894772096,0.1833464944418634,359.48754654803497,146.2377369246254,0.001421,0.001421,0.012431,-0.290377,-0.004744,-0.000233,-0.956901,0.001421,0.001421,0.012431,2.070915,0.0,0.0,0.0012925,0.0,0.0,-0.0039985,0.0,0.0,0.0,7.086601086832928
2023-09-08 15:46:49.865,0.050112875392,0.0477206262272,-0.0138275005696,0.0890306241536,0.0890409991552,0.070255749568,48.359257,-4.557322,48.9620798740608,50.787003,0.5887468722176,0.5878938722304,0.5752539977728,-0.0806218716288,-0.013271625536,-9.7961231240448,-0.0066446163968,-0.001481249472,-0.0251272511488,33.5280698731008,-0.0818583674496,-0.0123215025792,-9.7962187486336,-0.0069654912128,-0.0014077494912,-0.0251493758464,-0.400877,-0.258716,0.813625,-0.094643,-0.014042,-9.788387,0.1694881132496832,359.4865796842309,146.20103190983994,0.0014228749951999,0.0014228749951999,0.0124303750016,-0.2906838742144,-0.0047171250688,-0.0001130003072,-0.9568078752384,0.0014228749951999,0.0014228749951999,0.0124303750016,2.070915,0.0,0.0,0.0012131252032,0.0,0.0,-0.0036466259008,0.0,0.0,0.0,7.04989607204746
2023-09-08 15:46:49.880,0.050021,0.047433,-0.013694,0.089229,0.089239,0.070357,48.359257,-4.557322,48.9623,50.787003,0.589399,0.588543,0.575776,-0.081412,-0.013146,-9.796347,-0.008661,-0.001605,-0.024858,33.528515,-0.083628,-0.011717,-9.796539,-0.009025,-0.001527,-0.024951,-0.3996511197696,-0.2681184151168,0.8134911244288,-0.0893041022208,-0.016852636992,-9.7886975013248,0.1611730277703005,359.48599956198814,146.17900875062452,0.001424,0.001424,0.01243,-0.290868,-0.004701,-4.1e-05,-0.956752,0.001424,0.001424,0.01243,2.070915,0.0,0.0,0.0011655,0.0,0.0,-0.0034355,0.0,0.0,0.0,7.027872912832038
2023-09-08 15:46:49.905,0.0500682915456,0.0473188336256,-0.013306500992,0.0895598324864,0.0895700408192,0.0705244995712,48.359257,-4.557322,48.9626391657984,50.787003,0.5905102471552,0.5896498721664001,0.5766595394048,-0.083346370048,-0.015845993088,-9.794668879296,-0.0110991187584,-0.0015793750656,-0.0250036246272,33.528934373926404,-0.083396750592,-0.0159751140992,-9.793748382144,-0.0115249936,-0.0016194997632,-0.0249778749312,-0.397608,-0.283789,0.813268,-0.080406,-0.021537,-9.789215,0.1415850832945317,359.4847820297904,146.1432347898726,0.0014258749952,0.0014258749952,0.0124293750016,-0.291167999232,-0.0046610001024,0.0001271245696,-0.9566607502336,0.0014258749952,0.0014258749952,0.0124293750016,2.070915,0.0,0.0,0.0010861252032,0.0,0.0,-0.0030836259008,0.0,0.0,0.0,6.992098952080113
2023-09-08 15:46:49.920,0.0500966666666666,0.0472503333333333,-0.013074,0.0897583333333333,0.0897686666666666,0.070625,48.359257,-4.557322,48.96284266666667,50.787003,0.591177,0.590314,0.5771896666666666,-0.084507,-0.017466,-9.793662,-0.012562,-0.001564,-0.025091,33.529186,-0.083258,-0.01853,-9.792074,-0.013025,-0.001675,-0.024994,-0.3971731231445333,-0.28264524512,0.8142447541674667,-0.0792983702741333,-0.0216325004074666,-9.788315121160531,0.1298322363766445,359.4840515054847,146.12177026689093,0.001427,0.001427,0.012429,-0.291348,-0.004637,0.000228,-0.956606,0.001427,0.001427,0.012429,2.070915,0.0,0.0,0.0010385,0.0,0.0,-0.0028725,0.0,0.0,0.0,6.970634429098453
2023-09-08 15:46:50.000,0.050248,0.046885,-0.011834,0.090817,0.090828,0.071161,48.359257,-4.557322,48.963928,50.787003,0.594733,0.593856,0.580017,-0.080317,-0.0194166666666666,-9.786769333333332,-0.0156873333333333,-0.0003026666666666,-0.0249036666666666,33.52885066666667,-0.07867,-0.0184106666666666,-9.786346,-0.015661,-0.0002763333333333,-0.0247813333333333,-0.3948537898112,-0.27654524512,0.8194540875008,-0.0733910369408,-0.0221418337408,-9.7835157878272,0.051566201561774,359.48550299856566,146.0073314966101,0.0014243333333333,0.0014243333333333,0.012431,-0.2923053333333333,-0.004425,0.000882,-0.956314,0.0014243333333333,0.0014243333333333,0.012431,2.070915,0.0,0.0,0.0007844999999999,0.0,0.0,-0.0017465,0.0,0.0,0.0,6.856195658817626
2023-09-08 15:46:50.020,0.0496445,0.0462645,-0.0112775,0.0899475,0.089958,0.0707435,48.359257,-4.557322,48.963119000000006,50.7875025,0.593798,0.592924,0.5796015,-0.0792694999999999,-0.0199043333333333,-9.785046166666666,-0.0164686666666666,1.2666666666666469e-05,-0.0248568333333333,33.528766833333336,-0.077523,-0.0183808333333333,-9.784914,-0.01632,7.333333333333324e-05,-0.0247281666666666,-0.3942739564778666,-0.27502024512,0.8207564208341334,-0.0719142036074666,-0.0222691670741333,-9.782315954493868,0.0319996928580564,359.4858658718359,145.97872180403994,0.0014236666666666,0.0014236666666666,0.0124315,-0.2925446666666667,-0.004372,0.0010455,-0.956241,0.0014236666666666,0.0014236666666666,0.0124315,2.070915,0.0,0.0,0.000721,0.0,0.0,-0.001465,0.0,0.0,0.0,6.827585966247455
2023-09-08 15:46:50.025,0.0494936269312,0.0461093769856,-0.0111383767808,0.0897301277824,0.089740502784,0.070639126336,48.359257,-4.557322,48.9629167525888,50.7876273734016,0.593564252992,0.5926910029824,0.5794976263296,-0.079007628352,-0.0200262484394666,-9.784615380514133,-0.0166639974997333,9.14989909333332e-05,-0.0248451251498666,33.52874587526827,-0.0772362536704,-0.0183733750954666,-9.7845560045824,-0.0164847478912,0.0001607488810666,-0.0247148751701333,-0.394129,-0.274639,0.821082,-0.071545,-0.022301,-9.782016,0.0271081282949548,359.4859565889923,145.9715694724484,0.0014235000021333,0.0014235000021333,0.0124316249984,-0.2926044992341333,-0.0043587501696,0.0010863744768,-0.9562227502336,0.0014235000021333,0.0014235000021333,0.0124316249984,2.070915,0.0,0.0,0.0007185750310399,0.0,0.0,-0.0013682262387199,0.0,0.0,0.0,6.820433634655927
2023-09-08 15:46:50.040,0.049041,0.045644,-0.010721,0.089078,0.089088,0.070326,48.359257,-4.557322,48.96231,50.788002,0.592863,0.591992,0.579186,-0.078222,-0.020392,-9.783323,-0.01725,0.000328,-0.02481,33.528683,-0.076376,-0.018351,-9.783482,-0.016979,0.000423,-0.024675,-0.3941151249408,-0.27814526496,0.8210699999487999,-0.0758365183104,-0.0180121067008,-9.7743682173696,0.0124331841543388,359.4862287451062,145.95011211146974,0.001423,0.001423,0.012432,-0.292784,-0.004319,0.001209,-0.956168,0.001423,0.001423,0.012432,2.070915,0.0,0.0,0.0007113,0.0,0.0,-0.0010779,0.0,0.0,0.0,6.798976273677255
2023-09-08 15:46:50.065,0.0491484997248,0.0459339992576,-0.0102222512768,0.0894079991552,0.0894179991552,0.0704941245696,48.359257,-4.557322,48.9626149992192,50.788002,0.593962997184,0.5930876221952,0.5800653727488,-0.0749776333056,-0.0158682615808,-9.7797686340992,-0.016525001856,0.0010673731072,-0.0247075002624,33.5288948744576,-0.0753685025792,-0.0153335077248,-9.7795801349888,-0.0163958764928,0.0011586231168,-0.0246431250816,-0.394092,-0.283989,0.82105,-0.082989,-0.010864,-9.761622,224.9879362574453,359.4895948635353,145.91355033576633,0.0014248749952,0.0014248749952,0.0124307500032,-0.2930902492159999,-0.0042290002303999,0.0014014995072,-0.95607425024,0.0014248749952,0.0014248749952,0.0124307500032,2.070915,0.0,0.0,0.00069917503104,0.0,0.0,-0.0005940262387199,0.0,0.0,0.0,6.76241449797385
2023-09-08 15:46:50.080,0.049213,0.046108,-0.009923,0.089606,0.089616,0.070595,48.359257,-4.557322,48.962798,50.788002,0.594623,0.593745,0.580593,-0.073031,-0.013154,-9.777636,-0.01609,0.001511,-0.024646,33.529022,-0.074764,-0.013523,-9.777239,-0.016046,0.0016,-0.024624,-0.3917317399296,-0.2782526005248,0.8208669992191999,-0.0780997291391999,-0.01300150912,-9.7675050251008,359.9741596034396,359.4916145483804,145.89161312058687,0.001426,0.001426,0.01243,-0.293274,-0.004175,0.001517,-0.956018,0.001426,0.001426,0.01243,2.070915,0.0,0.0,0.0006919,0.0,0.0,-0.0003036999999999,0.0,0.0,0.0,6.740477282794387
2023-09-08 15:46:50.105,0.0495173742208,0.0466742485504,-0.009418313792,0.0899363116544,0.0899463116544,0.0707624995712,48.359257,-4.557322,48.9630733117952,50.788002,0.5957411221376,0.5948587471487999,0.5814823727232,-0.0764191163264,-0.011519629184,-9.7743878833152,-0.0148037532927999,0.0024003727232,-0.024542875264,33.5283570017024,-0.0757352475136,-0.0116411298176,-9.7736846340992,-0.0146560035584,0.0024299978752,-0.0244821253632,-0.387798,-0.268692,0.820562,-0.069951,-0.016564,-9.77731,359.9533899365366,359.4968785846472,145.85469324717826,0.0014278749951999,0.0014278749951999,0.0124293750016,-0.2935827492096,-0.0040775002496,0.0016776245888,-0.9559236252416,0.0014278749951999,0.0014278749951999,0.0124293750016,2.070915,0.0,0.0,0.00067977503104,0.0,0.0,0.00018017376128,0.0,0.0,0.0,6.70355740938578
2023-09-08 15:46:50.120,0.0497,0.047014,-0.0091154999999999,0.0901345,0.0901445,0.070863,48.359257,-4.557322,48.9632385,50.788002,0.5964119999999999,0.5955269999999999,0.5820160000000001,-0.078452,-0.010539,-9.772439,-0.014032,0.002934,-0.024481,33.527958,-0.076318,-0.010512,-9.771552,-0.013822,0.002928,-0.024397,-0.3889468174016,-0.2715654497599999,0.821408566112,-0.0702682513536,-0.0149499931136,-9.7781464410688,359.94092805132203,359.50003702796886,145.8325411719089,0.001429,0.001429,0.012429,-0.293768,-0.004019,0.001774,-0.955867,0.001429,0.001429,0.012429,2.070915,0.0,0.0,0.0006724999999999,0.0,0.0,0.0004705,0.0,0.0,0.0,6.68140533411642
2023-09-08 15:46:50.160,0.050187,0.04792,-0.008308,0.090663,0.090673,0.071131,48.359257,-4.557322,48.963679,50.788002,0.598201,0.597309,0.583439,-0.079136,-0.0094554999999999,-9.775059,-0.010697,0.0042895,-0.0246305,33.528103,-0.0777144999999999,-0.0091275,-9.7751915,-0.01048,0.004403,-0.024592,-0.3920103174016,-0.27922794976,0.823666066112,-0.0711142513536,-0.0106459931136,-9.7803769410688,359.9192988945558,359.513902606611,145.7747870261597,0.0014315,0.0014315,0.0124315,-0.2942504999999999,-0.0038469999999999,0.001921,-0.9557185,0.0014315,0.0014315,0.0124315,2.070915,0.0,0.0,0.0006531,0.0,0.0,0.0012447,0.0,0.0,0.0,6.623651188367205
2023-09-08 15:46:50.185,0.050652623808,0.0483124989952,-0.0080523756544,0.0909936241535999,0.0910036241536,0.0712978745728,48.359257,-4.5573213750016,48.9639333743488,50.788002,0.5993378720896,0.5984414971008,0.5843377476992,-0.0795634989056,-0.0087783142336,-9.776696495807998,-0.008612630336,0.0051366853312,-0.0247239372608,33.528193624768,-0.0785873102656,-0.0082621897152,-9.7774661816768,-0.0083912553472,0.00532487264,-0.024713874688,-0.393925,-0.284017,0.825077,-0.071643,-0.007956,-9.781771,359.9057807061836,359.52256857107744,145.7386907774731,0.0014330624959999,0.0014330624959999,0.012433062496,-0.294552061728,-0.0037395002751999,0.0020128747648,-0.9556256877376,0.0014330624959999,0.0014330624959999,0.012433062496,2.070915,0.0,0.0,0.00064097503104,0.0,0.0,0.00172857376128,0.0,0.0,0.0,6.587554939680615
2023-09-08 15:46:50.200,0.050932,0.048548,-0.007899,0.091192,0.091202,0.071398,48.359257,-4.557321,48.964086,50.788002,0.60002,0.599121,0.584877,-0.07982,-0.008372,-9.777679,-0.007362,0.005645,-0.02478,33.528248,-0.079111,-0.007743,-9.778831,-0.007138,0.005878,-0.024787,-0.3953192559488,-0.2815918646528,0.8206553561344,-0.0706443707392,-0.0061346172288,-9.785054514009602,359.8976697377896,359.5277681852532,145.7170328804105,0.001434,0.001434,0.012434,-0.294733,-0.003675,0.002068,-0.95557,0.001434,0.001434,0.012434,2.070915,0.0,0.0,0.0006337,0.0,0.0,0.0020189,0.0,0.0,0.0,6.565897042618019
2023-09-08 15:46:50.220,0.0498105,0.04792,-0.0075165,0.089833,0.0898425,0.070739,48.359257,-4.5573215000000005,48.963294000000005,50.7875025,0.598244,0.5973505,0.583936,-0.074489,-0.0080474999999999,-9.782913,-0.005422,0.0063505,-0.0248175,33.527611,-0.074764,-0.0077185,-9.783992,-0.005195,0.0064315,-0.0248649999999999,-0.3971782559488,-0.2783583646528,0.8147598561343999,-0.0693128707392,-0.0037061172288,-9.7894325140096,359.89408875157005,359.5362766085109,145.68761149763054,0.0014264999999999,0.0014264999999999,0.012433,-0.2949785,-0.003594,0.002077,-0.9554945,0.0014264999999999,0.0014264999999999,0.012433,2.070915,0.0,0.0,0.000624,0.0,0.0,0.002406,0.0,0.0,0.0,6.536475659838061
2023-09-08 15:46:50.225,0.0495301285888,0.0477630020096,-0.007420876224,0.0894932543488,0.0895026293504,0.0705742521088,48.359257,-4.5573216249984,48.9630960025344,50.7873776265984,0.5978000056832,0.5969078806656,0.5837007530112001,-0.0731562670592,-0.0079663760384,-9.7842214832512,-0.004937006208,0.0065268727423999,-0.02482687488,33.5274517520384,-0.0736772639104,-0.0077123750784,-9.7852822334848,-0.0047092562176,0.0065698732288,-0.0248844997504,-0.397643,-0.27755,0.813286,-0.06898,-0.003099,-9.790527,359.8931935164743,359.5384036870984,145.680256246084,0.001424625024,0.001424625024,0.0124327500032,-0.2950398742144,-0.0035737502592,0.0020792499712,-0.9554756252416,0.001424625024,0.001424625024,0.0124327500032,2.070915,0.0,0.0,0.00063814981888,0.0,0.0,0.00238845022464,0.0,0.0,0.0,6.529120408291533
2023-09-08 15:46:50.240,0.048689,0.047292,-0.007134,0.088474,0.088483,0.07008,48.359257,-4.557322,48.962502,50.787003,0.596468,0.59558,0.582995,-0.069158,-0.007723,-9.788147,-0.003482,0.007056,-0.024855,33.526974,-0.070417,-0.007694,-9.789153,-0.003252,0.006985,-0.024943,-0.3962374940032,-0.2834799003008,0.8176948938112,-0.0769232838912,-0.0004229885824,-9.7941123902976,359.8905077653505,359.5447850317686,145.65819011485058,0.001419,0.001419,0.012432,-0.295224,-0.003513,0.002086,-0.955419,0.001419,0.001419,0.012432,2.070915,0.0,0.0,0.0006806,0.0,0.0,0.0023358,0.0,0.0,0.0,6.507054277058103
2023-09-08 15:46:50.265,0.0494508730496,0.0477238738944,-0.0071302500096,0.0888027491584,0.0888117491584,0.070248749568,48.359257,-4.557322,48.9627194994432,50.787003,0.5975592472064,0.5966668722176001,0.5838724977536001,-0.0772973541632,-0.0092379961216,-9.790843868096,-0.0009801314048,0.00708724992,-0.0250306245503999,33.5272858742016,-0.0778151060608,-0.0089921216768,-9.7907554958976,-0.0007145064959999,0.0071406246016,-0.0250729996672,-0.393895,-0.293363,0.825043,-0.090162,0.004037,-9.800088,359.8906868142031,359.55620834856524,145.62123443167144,0.0014208749952,0.0014208749952,0.0124313750016,-0.2955321242112,-0.0034180002432,0.0020560000768,-0.9553246252416,0.0014208749952,0.0014208749952,0.0124313750016,2.070915,0.0,0.0,0.00075134981888,0.0,0.0,0.00224805022464,0.0,0.0,0.0,6.470098593878959
2023-09-08 15:46:50.280,0.049908,0.047983,-0.007128,0.089,0.089009,0.07035,48.359257,-4.557322,48.96285,50.787003,0.598214,0.597319,0.584399,-0.082181,-0.010147,-9.792462,0.000521,0.007106,-0.025136,33.527473,-0.082254,-0.009771,-9.791717,0.000808,0.007234,-0.025151,-0.391924366592,-0.2852247152768,0.8158074605951999,-0.0834880965248,-0.0050710388608,-9.8030370125824,359.89079424424807,359.5630623854332,145.5990608703931,0.001422,0.001422,0.012431,-0.295717,-0.003361,0.002038,-0.955268,0.001422,0.001422,0.012431,2.070915,0.0,0.0,0.0007938,0.0,0.0,0.0021954,0.0,0.0,0.0,6.447925032600608
2023-09-08 15:46:50.305,0.0503153427072,0.0476453446143999,-0.0071947185792,0.08861718848,0.0886266572288,0.0701264068224,48.359257,-4.557322,48.9611787542784,50.787003,0.5946236966912,0.5937440091520001,0.5811472895744,-0.0829972479104,-0.0126113686912,-9.802699473792,0.0028559940224,0.006999750272,-0.0248460007424,33.527671124492805,-0.0828733734144,-0.0137316148608,-9.8031088458368,0.0033054936064,0.0069515007232,-0.0248491257728,-0.38864,-0.271661,0.800415,-0.072365,-0.020251,-9.807952,359.89666704661374,359.5738053165899,145.56131737226244,0.0014238749952,0.0014232499967999,0.0124303750016,-0.2960313741952,-0.003286000192,0.0019623751936,-0.9551705002496,0.0014238749952,0.0014232499967999,0.0124303750016,2.070915,0.0,0.0,0.00086454981888,0.0,0.0,0.00210765022464,0.0,0.0,0.0,6.410181534469956
2023-09-08 15:46:50.320,0.05055975,0.04744275,-0.00723475,0.0883875,0.08839725,0.0699922499999999,48.359257,-4.557322,48.960176,50.787003,0.5924695,0.591599,0.57919625,-0.083487,-0.01409,-9.808842,0.004257,0.006936,-0.024672,33.52779,-0.083245,-0.016108,-9.809944,0.004804,0.006782,-0.024668,-0.3885671246890667,-0.2740093850197333,0.8019172564096,-0.0723672500096,-0.0184111171498666,-9.8108275122688,359.90019075208824,359.58025111928714,145.53867111878628,0.001425,0.001424,0.01243,-0.29622,-0.003241,0.001917,-0.955112,0.001425,0.001424,0.01243,2.070915,0.0,0.0,0.000907,0.0,0.0,0.002055,0.0,0.0,0.0,6.387535280993802
2023-09-08 15:46:50.420,0.052189125,0.046092125,-0.007501625,0.08685625,0.086867875,0.0690978749999999,48.359257,-4.557322,48.953491,50.787003,0.57810825,0.577299,0.566189375,-0.079562,-0.0160566666666666,-9.820867,0.0111928333333333,0.002641,-0.0243128333333333,33.52903583333334,-0.0783408333333333,-0.0139971666666666,-9.8206165,0.0112773333333333,0.0025911666666666,-0.0242429999999999,-0.3880812913557333,-0.2896652183530666,0.8119322564096,-0.0723822500096,-0.0061452838165333,-9.8299975122688,359.9580594893964,359.60593872710217,145.3954316700036,0.0014133333333333,0.0014131666666666,0.0124324999999999,-0.2974124999999999,-0.0031743333333333,0.001372,-0.9547428333333332,0.0014133333333333,0.0014131666666666,0.0124324999999999,2.070915,0.0,0.0,0.00119,0.0,0.0,0.001704,0.0,0.0,0.0,6.244295832211122
2023-09-08 15:46:50.425,0.0522705927072,0.0460245946144,-0.0075149685792,0.08677968848,0.0867914072288,0.0690531568224,48.359257,-4.557322,48.9531567542784,50.787003,0.5773901966912,0.576584009152,0.5655390395744,-0.079365752512,-0.0161549987413333,-9.821468242304,0.0115396205610666,0.0024262527487999,-0.0242948752298666,33.52909812420267,-0.0780956281386666,-0.0138916263509333,-9.8211501181696,0.0116009958570666,0.0023816276821333,-0.024221750272,-0.388057,-0.290448,0.812433,-0.072383,-0.005532,-9.830956,359.96095288922584,359.60722309105284,145.3882697892377,0.0014127500074666,0.0014126250069333,0.0124326249984,-0.2974721242368,-0.0031710000426666,0.0013447503488,-0.9547243752362666,0.0014127500074666,0.0014126250069333,0.0124326249984,2.070915,0.0,0.0,0.00121127472768,0.0,0.0,0.00169880006656,0.0,0.0,0.0,6.23713395144523
2023-09-08 15:46:50.440,0.052515,0.045822,-0.007555,0.08655,0.086562,0.068919,48.359257,-4.557322,48.952154,50.787003,0.575236,0.574439,0.563588,-0.078777,-0.01645,-9.823272,0.01258,0.001782,-0.024241,33.529285,-0.07736,-0.013575,-9.822751,0.012572,0.001753,-0.024158,-0.3882025006208,-0.2857514799616,0.8094284871808,-0.0753950128512,-0.0106136466816,-9.8294619936256,359.96963323685804,359.6110762486652,145.36678378024706,0.001411,0.001411,0.012433,-0.297651,-0.003161,0.001263,-0.954669,0.001411,0.001411,0.012433,2.070915,0.0,0.0,0.0012751,0.0,0.0,0.0016832,0.0,0.0,0.0,6.215647942454581
2023-09-08 15:46:50.465,0.0533887477632,0.045843874944,-0.0077887494016,0.0868793741568,0.0868913741568,0.0690902495616,48.359257,-4.557322,48.9523333745408,50.787003,0.576264122368,0.5754633723776,0.5644236228608,-0.081805117248,-0.0146418796288,-9.825140745216,0.0132593732608,0.000163254144,-0.023962875712,33.5285268769408,-0.0822274875392,-0.0145787474304,-9.8246984950144,0.013284498176,0.0001161291903999,-0.0239780004607999,-0.388445,-0.277924,0.804421,-0.080415,-0.019083,-9.826972,359.9882543175297,359.6109330095831,145.33018619477312,0.0014128749951999,0.0014128749951999,0.0124317500032,-0.2979553742208,-0.0032103748736,0.0011092503935999,-0.9545740002432,0.0014128749951999,0.0014128749951999,0.0124317500032,2.070915,0.0,0.0,0.00138147472768,0.0,0.0,0.00165720006656,0.0,0.0,0.0,6.179050356980639
2023-09-08 15:46:50.480,0.053913,0.045857,-0.007929,0.087077,0.087089,0.069193,48.359257,-4.557322,48.952441,50.787003,0.576881,0.576078,0.564925,-0.083622,-0.013557,-9.826262,0.013667,-0.000808,-0.023796,33.528072,-0.085148,-0.015181,-9.825867,0.013712,-0.000866,-0.02387,-0.390513133824,-0.2767029947904,0.8121790331008,-0.0807052512384,-0.016609864448,-9.8279173790336,359.99942704220484,359.61084706554715,145.30822749358467,0.001414,0.001414,0.012431,-0.298138,-0.00324,0.001017,-0.954517,0.001414,0.001414,0.012431,2.070915,0.0,0.0,0.0014453,0.0,0.0,0.0016416,0.0,0.0,0.0,6.157091655792186
2023-09-08 15:46:50.505,0.053911437504,0.0453057514112,-0.0075365010048,0.086819969408,0.0868318131584,0.0690681565696,48.359257,-4.557322,48.9512470968064,50.7871590933504,0.5770383433472,0.5762340933504,0.5651981243008,-0.0837538746624,-0.0136926246528,-9.8322957345536,0.013623250112,-0.002370496,-0.02374912512,33.5279338753536,-0.0828586308608,-0.0143535021184,-9.8307688624512,0.0135220004864,-0.002628495488,-0.0237281253632,-0.39396,-0.274668,0.825109,-0.081189,-0.012488,-9.829493,135.01815859585977,359.6066931321665,145.27291905984956,0.0014158749952,0.0014158749952,0.0124303750016,-0.2984311242496,-0.0033218747903999,0.0008776253568,-0.9544251252352,0.0014158749952,0.0014158749952,0.0124303750016,2.070915,0.0,0.0,0.00155167472768,0.0,0.0,0.00161560006656,0.0,0.0,0.0,6.121783222057076
2023-09-08 15:46:50.520,0.0539105,0.044975,-0.007301,0.08666575,0.0866775,0.06899325,48.359257,-4.557322,48.95053075,50.78725275,0.57713275,0.5763277499999999,0.565362,-0.083833,-0.013774,-9.835916,0.013597,-0.003308,-0.023721,33.527851,-0.081485,-0.013857,-9.83371,0.013408,-0.003686,-0.023643,-0.3952413804672,-0.2763504446784,0.8229390532416,-0.0806928728832,-0.0151418863232,-9.8271357399424,0.0284760024180019,359.6042007551236,145.2517338549848,0.001417,0.001417,0.01243,-0.298607,-0.003371,0.000794,-0.95437,0.001417,0.001417,0.01243,2.070915,0.0,0.0,0.0016155,0.0,0.0,0.0015999999999999,0.0,0.0,0.0,6.100598017192311
2023-09-08 15:46:50.585,0.053906437504,0.0435417514112,-0.0062805010048,0.085997469408,0.0860088131584,0.0686686565696,48.359257,-4.557322,48.9474265968064,50.7876585933504,0.5775418433471999,0.5767335933504,0.5660721243008,-0.0819772518272,-0.016467434848,-9.8232385749824,0.0116656894016,-0.0071413712255999,-0.0232952504191999,33.5276868751616,-0.0821049368896,-0.0169672469376,-9.8226583858816,0.0116684392127999,-0.007252871488,-0.0232058754304,-0.400794,-0.283641,0.813536,-0.078543,-0.026642,-9.816921,0.0706528165840886,359.5804588398646,145.16309737135097,0.001421062496,0.001421062496,0.012434062496,-0.2993439367744,-0.0036781246976,0.0005080002816,-0.954138437728,0.001421062496,0.001421062496,0.012434062496,2.070915,0.0,0.0,0.00189207472768,0.0,0.0,0.0015324000665599,0.0,0.0,0.0,6.011961533558491
2023-09-08 15:46:50.600,0.0539055,0.043211,-0.006045,0.08584325,0.0858545,0.06859375,48.359257,-4.557322,48.94671025,50.78775225,0.57763625,0.57682725,0.566236,-0.081549,-0.017089,-9.820313,0.01122,-0.008026,-0.023197,33.527649,-0.082248,-0.017685,-9.820108,0.011267,-0.008076,-0.023105,-0.397163984512,-0.2814757407616,0.8147498801792,-0.0791347525248,-0.0257318711168,-9.8121161044992,0.0803859786568545,359.574979907572,145.14264269079186,0.001422,0.001422,0.012435,-0.299514,-0.003749,0.000442,-0.954085,0.001422,0.001422,0.012435,2.070915,0.0,0.0,0.0019559,0.0,0.0,0.0015168,0.0,0.0,0.0,5.991506852999379
2023-09-08 15:46:50.620,0.05390425,0.04277,-0.005731,0.085637625,0.08564875,0.068493875,48.359257,-4.557322,48.945755125,50.787877125,0.577762125,0.5769521249999999,0.5664545,-0.0788285,-0.0169545,-9.8173175,0.01026,-0.0087665,-0.0230345,33.5274355,-0.0792865,-0.017414,-9.816736,0.0101955,-0.008819,-0.0230825,-0.392323984512,-0.2785887407615999,0.8163683801792,-0.0799237525248,-0.0245183711168,-9.8057096044992,0.0909856978667747,359.56466666725964,145.11568502653097,0.001413,0.001413,0.012434,-0.299738,-0.0038625,0.0003815,-0.954014,0.001413,0.001413,0.012434,2.070915,0.0,0.0,0.002041,0.0,0.0,0.001496,0.0,0.0,0.0,5.964549188738488
2023-09-08 15:46:50.625,0.053903937504,0.0426597514112,-0.0056525010048,0.085586219408,0.0855973131584,0.0684689065696,48.359257,-4.557322,48.9455163468064,50.7879083433504,0.5777935933471999,0.5769833433503999,0.5665091243008,-0.0781483837056,-0.0169208754304,-9.8165686345856,0.010020003072,-0.0089516226304,-0.02299387552,33.5273821256832,-0.0785461344768,-0.0173462508672,-9.8158930107904,0.0099276284288,-0.0090047476224,-0.023076875072,-0.391114,-0.277867,0.816773,-0.080121,-0.024215,-9.804108,0.0936355937501532,359.562088390184,145.10894569673025,0.0014107500288,0.0014107500288,0.0124337500032,-0.2997939992832,-0.0038908746368,0.0003663751936,-0.9539962502272,0.0014107500288,0.0014107500288,0.0124337500032,2.070915,0.0,0.0,0.0020583747776,0.0,0.0,0.00157597397632,0.0,0.0,0.0,5.957809858937765
2023-09-08 15:46:50.640,0.053903,0.042329,-0.005417,0.085432,0.085443,0.068394,48.359257,-4.557322,48.9448,50.788002,0.577888,0.577077,0.566673,-0.076108,-0.01682,-9.814322,0.0093,-0.009507,-0.022872,33.527222,-0.076325,-0.017143,-9.813364,0.009124,-0.009562,-0.02306,-0.390975249408,-0.281393890048,0.8197805128319999,-0.0872134052608,-0.0223219919232,-9.8028371195776,0.1015854170766949,359.5543534269473,145.08872736227005,0.001404,0.001404,0.012433,-0.299962,-0.003976,0.000321,-0.953943,0.001404,0.001404,0.012433,2.070915,0.0,0.0,0.0021105,0.0,0.0,0.0018159,0.0,0.0,0.0,5.937591524477568
2023-09-08 15:46:50.665,0.054334248896,0.0419696259199999,-0.0047882516096,0.0857607491584,0.0857717491584,0.0685664995584,48.359257,-4.557322,48.944921874688,50.788002,0.578897372416,0.5780826224256,0.5675017478784,-0.0848779775488,-0.0183774960128,-9.8060476461824,0.0076400042495999,-0.0100294986623999,-0.0228457500672,33.52645637696,-0.0850506026624,-0.0179348729727999,-9.8057415195136,0.0074190043648,-0.0100538737408,-0.022906875392,-0.390744,-0.287272,0.824793,-0.099034,-0.019167,-9.800719,0.1097500447558087,359.54067409460765,145.05492293889688,0.0014058749952,0.0014058749952,0.0124323750016,-0.3002426242816,-0.0041109996544,0.00028975008,-0.9538542502272,0.0014058749952,0.0014058749952,0.0124323750016,2.070915,0.0,0.0,0.0021973747776,0.0,0.0,0.00221577397632,0.0,0.0,0.0,5.903787101104399
2023-09-08 15:46:50.680,0.054593,0.041754,-0.004411,0.085958,0.085969,0.06867,48.359257,-4.557322,48.944995,50.788002,0.579503,0.578686,0.567999,-0.09014,-0.019312,-9.801083,0.006644,-0.010343,-0.02283,33.525997,-0.090286,-0.01841,-9.801168,0.006396,-0.010349,-0.022815,-0.3906869997568,-0.286113245056,0.8263065064576001,-0.0887863312768,-0.0166646143232,-9.7997642459264,0.1146488548056777,359.5324664391732,145.03464014640969,0.001407,0.001407,0.012432,-0.300411,-0.004192,0.000271,-0.953801,0.001407,0.001407,0.012432,2.070915,0.0,0.0,0.0022494999999999,0.0,0.0,0.0024557,0.0,0.0,0.0,5.883504308617205
2023-09-08 15:46:50.705,0.0544834169472,0.0415958754047999,-0.0039585011584,0.0862869574912,0.0862979574912,0.0688414578944,48.359257,-4.557322,48.9451031247232,50.788002,0.580536330688,0.5797151640320001,0.5688404561792,-0.077496282368,-0.014612012032,-9.801436124096,0.0049165044224,-0.0105079995776,-0.0225712506624,33.5256038760064,-0.0768722843392,-0.014538134912,-9.800702376192,0.0047497542144,-0.0105852493952,-0.0225950005632,-0.390592,-0.284182,0.828829,-0.071707,-0.012494,-9.798173,0.1190534565799364,359.5182857700464,145.00058505464287,0.0014088749952,0.0014088749952,0.0124307500032,-0.3006941242752,-0.0043213746688,0.0002728749952,-0.9537110002304,0.0014088749952,0.0014088749952,0.0124307500032,2.070915,0.0,0.0,0.0023363747776,0.0,0.0,0.00285557397632,0.0,0.0,0.0,5.849449216850388
2023-09-08 15:46:50.720,0.0544176666666666,0.0415009999999999,-0.003687,0.0864843333333333,0.0864953333333333,0.0689443333333333,48.359257,-4.557322,48.945168,50.788002,0.5811563333333333,0.5803326666666667,0.5693453333333334,-0.06991,-0.011792,-9.801648,0.00388,-0.010607,-0.022416,33.525368,-0.068824,-0.012215,-9.800423,0.003762,-0.010727,-0.022463,-0.391280127936,-0.2847235023104,0.826612740544,-0.0715553118528,-0.0139737563136,-9.7954611759296,0.1216962356857868,359.5097773104861,144.98015186009275,0.00141,0.00141,0.01243,-0.300864,-0.004399,0.000274,-0.953657,0.00141,0.00141,0.01243,2.070915,0.0,0.0,0.0023885,0.0,0.0,0.0030955,0.0,0.0,0.0,5.829016022300266
2023-09-08 15:46:50.785,0.0541327502805333,0.0410898754048,-0.0025105011584,0.0873396241578666,0.0873506241578666,0.0693901245610666,48.359257,-4.557322,48.9454491247232,50.788002,0.5838429973546666,0.5830084973653333,0.5715331228458667,-0.0744209955584,-0.0138289354943999,-9.7929965085184,-0.0012127449856,-0.0083750646976,-0.0223867500288,33.5260090618688,-0.072496496384,-0.0145744976768,-9.7938490689728,-0.0015005573184,-0.0081343150528,-0.02230050016,-0.394262,-0.28707,0.817009,-0.070898,-0.020386,-9.78371,0.1144340027830169,359.48142667050024,144.89565857343555,0.0014148749951999,0.0014148749951999,0.012434062496,-0.301566811808,-0.0046159372864,0.000412124864,-0.95343356272,0.0014148749951999,0.0014148749951999,0.012434062496,2.070915,0.0,0.0,0.0026143747776,0.0,0.0,0.00413517397632,0.0,0.0,0.0,5.7445227356430735
2023-09-08 15:46:50.800,0.054067,0.040995,-0.002239,0.087537,0.087548,0.069493,48.359257,-4.557322,48.945514,50.788002,0.584463,0.583626,0.572038,-0.075462,-0.014299,-9.791,-0.002388,-0.00786,-0.02238,33.526157,-0.073344,-0.015119,-9.792332,-0.002715,-0.007536,-0.022263,-0.394338875328,-0.2835532349951999,0.8155112436096,-0.0823715489536,-0.0185987423744,-9.788796896704,0.112758094081746,359.4748841807626,144.87616002027653,0.001416,0.001416,0.012435,-0.301729,-0.004666,0.000444,-0.953382,0.001416,0.001416,0.012435,2.070915,0.0,0.0,0.0026665,0.0,0.0,0.0043751,0.0,0.0,0.0,5.725024182484049
2023-09-08 15:46:50.820,0.0536704999999999,0.040284,-0.001968,0.086864,0.0868745,0.0691575,48.359257,-4.557322,48.9452995,50.7875025,0.5838625,0.583027,0.5717890000000001,-0.0774035,-0.016104,-9.791686,-0.0038665,-0.0065675,-0.0222495,33.526143999999995,-0.077994,-0.016287,-9.792339,-0.0041185,-0.006362,-0.022244,-0.394441375328,-0.2788642349951999,0.8135142436096,-0.0976695489536,-0.0162157423744,-9.795579396704,0.1061117836582284,359.4698994479449,144.84997584903903,0.001412,0.001412,0.0124345,-0.301947,-0.00469,0.000514,-0.953313,0.001412,0.001412,0.0124345,2.070915,0.0,0.0,0.002736,0.0,0.0,0.004695,0.0,0.0,0.0,5.698840011246546
2023-09-08 15:46:50.825,0.0535713762688,0.0401062522752,-0.0019002508672,0.0866957521536,0.0867061271552,0.0690736260736,48.359257,-4.557322,48.9452458756864,50.7873776265984,0.5837123769215999,0.5828772519168,0.5717267507968,-0.0778888687872,-0.016555244224,-9.7918574978048,-0.0042361202688,-0.006244379136,-0.0222168754176,33.5261407500416,-0.07915648512,-0.0165789962624,-9.7923407499776,-0.0044693705088,-0.0060685037568,-0.0222392500608,-0.394467,-0.277692,0.813015,-0.101494,-0.01562,-9.797275,0.1044502273205424,359.4686532806917,144.84342989001902,0.0014110000128,0.0014110000128,0.0124343750016,-0.3020014993024,-0.0046959999232,0.000531499776,-0.9532957502208,0.0014110000128,0.0014110000128,0.0124343750016,2.070915,0.0,0.0,0.002727680106496,0.0,0.0,0.004568941613568,0.0,0.0,0.0,5.692294052226544
2023-09-08 15:46:50.840,0.053274,0.039573,-0.001697,0.086191,0.086201,0.068822,48.359257,-4.557322,48.945085,50.787003,0.583262,0.582428,0.57154,-0.079345,-0.017909,-9.792372,-0.005345,-0.005275,-0.022119,33.526131,-0.082644,-0.017455,-9.792346,-0.005522,-0.005188,-0.022225,-0.3942547490944,-0.2835675250688,0.8175247692416,-0.0967866049152,-0.0155101245312,-9.7988935069056,0.0994654732347109,359.4649147151273,144.82379167780155,0.001408,0.001408,0.012434,-0.302165,-0.004714,0.000584,-0.953244,0.001408,0.001408,0.012434,2.070915,0.0,0.0,0.00270272,0.0,0.0,0.00419076,0.0,0.0,0.0,5.672655840009071
2023-09-08 15:46:50.865,0.0533277498624,0.0395155001472,-0.0019238744192,0.08651912416,0.08652912416,0.06899387456,48.359257,-4.557322,48.9452137496704,50.787003,0.5842913723648,0.583452997376,0.572380622848,-0.08428248736,-0.01551838112,-9.7951819928064,-0.006879371072,-0.0036775040896,-0.0221933748096,33.5261616249216,-0.0844071204863999,-0.0159462538624,-9.7947841187584,-0.0070763710208,-0.0035480041984,-0.0223431246976,-0.393901,-0.29336,0.825041,-0.088941,-0.015327,-9.801591,0.0870394828634279,359.4623722214202,144.79106154754405,0.0014098749951999,0.0014098749951999,0.0124327500032,-0.3024374993024,-0.004701500032,0.0006952497152,-0.9531577502208,0.0014098749951999,0.0014098749951999,0.0124327500032,2.070915,0.0,0.0,0.002661120106496,0.0,0.0,0.003560461613568,0.0,0.0,0.0,5.639925709751566
2023-09-08 15:46:50.880,0.05336,0.039481,-0.00206,0.086716,0.086726,0.069097,48.359257,-4.557322,48.945291,50.787003,0.584909,0.584068,0.572885,-0.087245,-0.014084,-9.796868,-0.0078,-0.002719,-0.022238,33.52618,-0.085465,-0.015041,-9.796247,-0.008009,-0.002564,-0.022414,-0.3914743646464,-0.2876359755776,0.8263688806656,-0.0839579787392,-0.0143358707712,-9.8027302548608,0.0795838377436713,359.4608467147819,144.7714233353266,0.001411,0.001411,0.012432,-0.302601,-0.004694,0.000762,-0.953106,0.001411,0.001411,0.012432,2.070915,0.0,0.0,0.00263616,0.0,0.0,0.00318228,0.0,0.0,0.0,5.620287497534122
2023-09-08 15:46:50.905,0.0534216665088,0.0396418329216,-0.0026845817344,0.087045165824,0.087055165824,0.0692674162304,48.359257,-4.557322,48.9454591245696,50.787003,0.585962122304,0.5851171639808,0.5737387478144,-0.0813718900352,-0.0135915012608,-9.7986567454208,-0.0092243713536,-0.0013571284864,-0.0222392499968,33.526411249408,-0.0807456370816,-0.013284754496,-9.7984569943424,-0.0093196216448,-0.0011590035967999,-0.0223027502848,-0.38743,-0.278096,0.828582,-0.075653,-0.012684,-9.804629,0.0641498266485042,359.4615629101923,144.737726341265,0.0014128749951999,0.0014128749951999,0.0124313750016,-0.30288224928,-0.0046477501184,0.0008894996736,-0.9530166252288,0.0014128749951999,0.0014128749951999,0.0124313750016,2.070915,0.0,0.0,0.002594560106496,0.0,0.0,0.002551981613568,0.0,0.0,0.0,5.586590503472507
2023-09-08 15:46:50.920,0.0534586666666666,0.0397383333333333,-0.0030593333333333,0.0872426666666666,0.0872526666666666,0.0693696666666666,48.359257,-4.557322,48.94556,50.787003,0.5865940000000001,0.5857466666666666,0.574251,-0.077848,-0.013296,-9.79973,-0.010079,-0.00054,-0.02224,33.52655,-0.077914,-0.012231,-9.799783,-0.010106,-0.000316,-0.022236,-0.3869591854912,-0.2786855025152,0.8255090493888001,-0.0757471254016,-0.0137197544192,-9.8040473725184,0.0548893567735328,359.4619926303721,144.7175080068048,0.001414,0.001414,0.012431,-0.303051,-0.00462,0.000966,-0.952963,0.001414,0.001414,0.012431,2.070915,0.0,0.0,0.0025696,0.0,0.0,0.0021738,0.0,0.0,0.0,5.566372169012311
2023-09-08 15:46:50.985,0.0536189998421333,0.0401564995882666,-0.0046832484010666,0.0880984991573333,0.0881084991573333,0.0698127495637333,48.359257,-4.557322,48.9459971245696,50.787003,0.589332122304,0.5884744973141333,0.5764707478144,-0.0784281244288,-0.0151899356351999,-9.809029053344,-0.0122508103615999,0.0037759957503999,-0.0223513123904,33.527362499199995,-0.0773420005632,-0.0140526232064,-9.810191114752,-0.0123948102464,0.003965870784,-0.0222709374656,-0.384919,-0.28124,0.812193,-0.076155,-0.018208,-9.801527,292.50660544573026,359.47949647377885,144.6339457756479,0.0014188749952,0.0014188749952,0.012435062496,-0.3037473118144,-0.0043461877696,0.0013218746496,-0.9527420002176,0.0014188749952,0.0014188749952,0.012435062496,2.070915,0.0,0.0,0.002461440106496,0.0,0.0,0.000535021613568,0.0,0.0,0.0,5.482809937855421
2023-09-08 15:46:51.000,0.053656,0.040253,-0.005058,0.088296,0.088306,0.069915,48.359257,-4.557322,48.946098,50.787003,0.589964,0.589104,0.576983,-0.078562,-0.015627,-9.811175,-0.012752,0.004772,-0.022377,33.52755,-0.07721,-0.014473,-9.812593,-0.012923,0.004954,-0.022279,-0.386640257344,-0.281754689696,0.8138533195840001,-0.0737486147328,-0.0177084978687999,-9.8056141424384,359.99581740809555,359.4835358434691,144.6146620825788,0.00142,0.00142,0.012436,-0.303908,-0.004283,0.001404,-0.952691,0.00142,0.00142,0.012436,2.070915,0.0,0.0,0.00243648,0.0,0.0,0.00015684,0.0,0.0,0.0,5.463526244786323
2023-09-08 15:46:51.040,0.05335,0.039197,-0.006818,0.086918,0.086927,0.069233,48.359257,-4.557322,48.946556,50.787003,0.588663,0.587806,0.576435,-0.078595,-0.014574,-9.818497,-0.0122724999999999,0.0064305,-0.0225235,33.527525,-0.0775855,-0.0141164999999999,-9.8189725,-0.012352,0.006551,-0.0224535,-0.3912302573439999,-0.283127189696,0.818280819584,-0.0673316147328,-0.0163764978688,-9.8165131424384,359.9659090111897,359.50043809842543,144.56137700763165,0.001412,0.001412,0.012434,-0.304353,-0.004062,0.00161,-0.952549,0.001412,0.001412,0.012434,2.070915,0.0,0.0,0.00236992,0.0,0.0,-0.0008516399999999,0.0,0.0,0.0,5.410241169839168
2023-09-08 15:46:51.065,0.0537699989248,0.03965012384,-0.0080392468736,0.0872467491584,0.0872557491584,0.0694036245632,48.359257,-4.557322,48.9468109993472,50.787003,0.5897117473152,0.5888503723264,0.5772874978176,-0.0786156249472,-0.0139158766848,-9.8230732382848,-0.0119728132672,0.0074670598464,-0.0226150622656,33.527509375040005,-0.0778201868992,-0.0138936880704,-9.8229596772928,-0.0119951259136,0.0075491224448,-0.0225625622207999,-0.394099,-0.283985,0.821048,-0.063321,-0.015544,-9.823325,359.948039935699,359.5131863767314,144.5277874428816,0.0014138749952,0.0014138749952,0.0124333750016,-0.3046329992832,-0.0039082503936,0.001725624704,-0.9524602502272,0.0014138749952,0.0014138749952,0.0124333750016,2.070915,0.0,0.0,0.002328320106496,0.0,0.0,-0.0014819383864319,0.0,0.0,0.0,5.376651605089108
2023-09-08 15:46:51.080,0.054022,0.039922,-0.008772,0.087444,0.087453,0.069506,48.359257,-4.557322,48.946964,50.787003,0.590341,0.589477,0.577799,-0.078628,-0.013521,-9.825819,-0.011793,0.008089,-0.02267,33.5275,-0.077961,-0.01376,-9.825352,-0.011781,0.008148,-0.022628,-0.3942328755711999,-0.2827936199167999,0.8180314871295999,-0.0661867622272,-0.011096481024,-9.8282003958016,359.9373184172127,359.52083539593207,144.50763356644836,0.001415,0.001415,0.012433,-0.304801,-0.003816,0.001795,-0.952407,0.001415,0.001415,0.012433,2.070915,0.0,0.0,0.00230336,0.0,0.0,-0.0018601199999999,0.0,0.0,0.0,5.3564977286558815
2023-09-08 15:46:51.105,0.0546198109696,0.0403601238783999,-0.0099848093952,0.087773686656,0.087782686656,0.0696759995648,48.359257,-4.5573216875008,48.9472480617728,50.787003,0.5914072472704,0.5905391847808,0.5786614977919999,-0.0766261301248,-0.0133072505472,-9.8299864893312,-0.0109605021312,0.008035875136,-0.0227474998016,33.52676562688,-0.0770291273856,-0.0123462536192,-9.8294669894656,-0.0107853775487999,0.008044875264,-0.0227979995648,-0.394456,-0.280808,0.813004,-0.070963,-0.003684,-9.836326,359.9217411670354,359.53333300584444,144.4740081919278,0.0014168749952,0.0014168749952,0.0124323750016,-0.3050809992832,-0.0036697503744,0.0018924997504,-0.9523176252288,0.0014168749952,0.0014168749952,0.0124323750016,2.070915,0.0,0.0,0.002261760106496,0.0,0.0,-0.0024904183864319,0.0,0.0,0.0,5.322872354135313
2023-09-08 15:46:51.120,0.0549785,0.040623,-0.0107125,0.0879715,0.0879805,0.069778,48.359257,-4.5573215000000005,48.9474185,50.787003,0.592047,0.5911765,0.579179,-0.075425,-0.013179,-9.832487,-0.010461,0.008004,-0.022794,33.526325,-0.07647,-0.011498,-9.831936,-0.010188,0.007983,-0.0229,-0.3920042395392,-0.2820953804928,0.8143071305599999,-0.0781671557376,-0.007130264704,-9.8426871521408,359.9123947531245,359.5408316229822,144.45383282948558,0.001418,0.001418,0.012432,-0.305249,-0.003582,0.001951,-0.952264,0.001418,0.001418,0.012432,2.070915,0.0,0.0,0.0022368,0.0,0.0,-0.0028685999999999,0.0,0.0,0.0,5.302696991693097
2023-09-08 15:46:51.145,0.0555763109696,0.0410611238784,-0.0119253093952,0.088301186656,0.088310186656,0.0699479995648,48.359257,-4.5573211875008,48.9477025617728,50.787003,0.5931132472703999,0.5922386847808,0.580041497792,-0.075554687168,-0.0133530620543999,-9.8343991826048,-0.008842254144,0.0074936888064,-0.0228202499327999,33.5263512499328,-0.0762325006079999,-0.0119876862464,-9.8340819320064,-0.0085539416831999,0.0074433138816,-0.0229306249216,-0.387918,-0.284241,0.816479,-0.090174,-0.012874,-9.853289,359.8997539041301,359.5526846570251,144.42163984578593,0.0014192499968,0.0014192499968,0.0124357499904,-0.3055164993152,-0.0034495003392,0.0020253748096,-0.9521783752192,0.0014192499968,0.0014192499968,0.0124357499904,2.070915,0.0,0.0,0.002195200106496,0.0,0.0,-0.0034988983864319,0.0,0.0,0.0,5.270504007993452
2023-09-08 15:46:51.160,0.055935,0.041324,-0.012653,0.088499,0.088508,0.07005,48.359257,-4.557321,48.947873,50.787003,0.593753,0.592876,0.580559,-0.0756325,-0.0134575,-9.8355465,-0.007871,0.0071875,-0.022836,33.526367,-0.07609,-0.0122815,-9.8353695,-0.0075734999999999,0.0071195,-0.022949,-0.3868507454464,-0.2854406301184,0.8133529866624,-0.0852956041856,-0.0152286350464,-9.8488579810944,359.8921693429564,359.559796526001,144.40232392370334,0.00142,0.00142,0.012438,-0.305677,-0.00337,0.00207,-0.952127,0.00142,0.00142,0.012438,2.070915,0.0,0.0,0.00217024,0.0,0.0,-0.0038770799999999,0.0,0.0,0.0,5.251188085910854
2023-09-08 15:46:51.185,0.0565160401792,0.0414160830976,-0.0133861231231999,0.0884269168512,0.0884359168512,0.0700195834112,48.359257,-4.557321,48.9479879997056,50.787003,0.5941879988864,0.5933089155583999,0.5810206654848,-0.075762187168,-0.0136315620544,-9.8374586826048,-0.006252254144,0.0066771888064,-0.0228622499327999,33.5263932499328,-0.075852500608,-0.0127711862464,-9.8375154320064,-0.0059394416832,0.0065798138816,-0.0229796249216,-0.385072,-0.28744,0.808143,-0.077165,-0.019153,-9.841473,359.8840405250478,359.5697874519768,144.3679465440018,0.0014218749952,0.0014218749952,0.0124373750016,-0.3059632492672,-0.0032643752704,0.0021118748928,-0.9520357502336,0.0014218749952,0.0014218749952,0.0124373750016,2.070915,0.0,0.0,0.002128640106496,0.0,0.0,-0.0045073783864319,0.0,0.0,0.0,5.216810706209316
2023-09-08 15:46:51.200,0.0568646666666666,0.0414713333333333,-0.013826,0.0883836666666666,0.0883926666666666,0.0700013333333333,48.359257,-4.557321,48.948057,50.787003,0.594449,0.5935686666666666,0.5812976666666667,-0.07584,-0.013736,-9.838606,-0.005281,0.006371,-0.022878,33.526409,-0.07571,-0.013065,-9.838803,-0.004959,0.006256,-0.022998,-0.3867928823424,-0.2879550646975999,0.8098035070848,-0.0750205533503999,-0.017639868544,-9.8403988079168,359.8791632010069,359.5757820484852,144.34731997537077,0.001423,0.001423,0.012437,-0.306135,-0.003201,0.002137,-0.951981,0.001423,0.001423,0.012437,2.070915,0.0,0.0,0.00210368,0.0,0.0,-0.0048855599999999,0.0,0.0,0.0,5.196184137578285
2023-09-08 15:46:51.265,0.0583753735125333,0.0417107497642666,-0.0157321231232,0.0881962501845333,0.0882052501845333,0.0699222500778666,48.359257,-4.557321,48.9483559997056,50.787003,0.5955799988864,0.5946942488917333,0.5824979988181334,-0.07581968752,-0.0102934408896,-9.8363976271744,0.000698994112,0.0029739408448,-0.0234361869504,33.527025686892806,-0.0742832514048,-0.0093071912,-9.8368716894016,0.0011534314816,0.0027159409856,-0.0234131870911999,-0.39425,-0.290187,0.816999,-0.065728,-0.011083,-9.835744,359.88018736205726,359.5909582531409,144.25784554178665,0.001418937504,0.001418937504,0.0124345625024,-0.3068776242688,-0.0030766876224,0.0020906875456,-0.9517421252352,0.001418937504,0.001418937504,0.0124345625024,2.070915,0.0,0.0,0.001995520106496,0.0,0.0,-0.0065243383864319,0.0,0.0,0.0,5.10670970399417
2023-09-08 15:46:51.280,0.058724,0.041766,-0.016172,0.088153,0.088162,0.069904,48.359257,-4.557321,48.948425,50.787003,0.595841,0.594954,0.582775,-0.075815,-0.009499,-9.835888,0.002079,0.00219,-0.023565,33.527168,-0.073954,-0.00844,-9.836426,0.002564,0.001899,-0.023509,-0.3906739847424,-0.2903486256895999,0.8166948737024,-0.0763454203008,-0.0121232544384,-9.8325501113728,359.8804237081562,359.5944604726064,144.23719748714663,0.001418,0.001418,0.012434,-0.307049,-0.003048,0.00208,-0.951687,0.001418,0.001418,0.012434,2.070915,0.0,0.0,0.00197056,0.0,0.0,-0.0069025199999999,0.0,0.0,0.0,5.08606164935415
2023-09-08 15:46:51.305,0.0595383729152,0.0421859989247999,-0.0164088743936,0.0884829991552,0.0884919991552,0.0700733745664,48.359257,-4.557321,48.9487743741056,50.787003,0.5969203722368,0.5960289972480001,0.5836456227712,-0.0747125028224,-0.0088440016768,-9.8331680069632,0.0045371187072,0.0004606294271999,-0.0236724997248,33.5275279990784,-0.0755239959808,-0.008171250688,-9.8321653859072,0.004888994048,0.0002402542463999,-0.0236021247615999,-0.384714,-0.290618,0.816188,-0.094041,-0.013857,-9.827227,359.8884092869827,359.5944246628359,144.20231877065777,0.0014198749951999,0.0014198749951999,0.0124333750016,-0.3073383742592,-0.0030692499456,0.002014375168,-0.95159325024,0.0014198749951999,0.0014198749951999,0.0124333750016,2.070915,0.0,0.0,0.001928960106496,0.0,0.0,-0.0075328183864319,0.0,0.0,0.0,5.051182932865288
2023-09-08 15:46:51.320,0.060027,0.042438,-0.016551,0.088681,0.08869,0.070175,48.359257,-4.557321,48.948984,50.787003,0.597568,0.596674,0.584168,-0.074051,-0.008451,-9.831536,0.006012,-0.000577,-0.023737,33.527744,-0.076466,-0.00801,-9.829609,0.006284,-0.000755,-0.023658,-0.3867176335488,-0.2894082448384,0.825456164544,-0.0886739771008,-0.0149842548095999,-9.8270968744448,359.89320066698764,359.5944031768269,144.18139139790088,0.001421,0.001421,0.012433,-0.307512,-0.003082,0.001975,-0.951537,0.001421,0.001421,0.012433,2.070915,0.0,0.0,0.001904,0.0,0.0,-0.007911,0.0,0.0,0.0,5.030255560108401
2023-09-08 15:46:51.345,0.0610313724288,0.0427479992063999,-0.0165891249024,0.0890116241535999,0.0890206241536,0.0703437495679999,48.359257,-4.557321,48.9493208741376,50.787003,0.5986592472064,0.5977608722176,0.5850454977536,-0.0816766054784,-0.0090203735424,-9.8288441318912,0.0079644950016,-0.0022657456767999,-0.0240726241408,33.5279327495168,-0.0821916103424,-0.0096343708416,-9.8283883781248,0.0081152453119999,-0.0024406206848,-0.0241242488064,-0.390057,-0.287392,0.840903,-0.079729,-0.016863,-9.82688,359.90541179873577,359.59049991184,144.14654849118256,0.0014228749951999,0.0014228749951999,0.0124367499904,-0.3078007492608,-0.0031463748352,0.0018850002304,-0.9514438752384,0.0014228749951999,0.0014228749951999,0.0124367499904,2.070915,0.0,0.0,0.00178850029568,0.0,0.0,-0.0077830003276799,0.0,0.0,0.0,4.995412653390076
2023-09-08 15:46:51.360,0.061634,0.042934,-0.016612,0.08921,0.089219,0.070445,48.359257,-4.557321,48.949523,50.787003,0.599314,0.598413,0.585572,-0.086252,-0.009362,-9.827229,0.009136,-0.003279,-0.024274,33.528046,-0.085627,-0.010609,-9.827656,0.009214,-0.003452,-0.024404,-0.3917621322752,-0.2860828694144,0.8289276989056,-0.0821263852288,-0.0159974963072,-9.8242223636608,359.9127385278016,359.58815793685994,144.12564260443466,0.001424,0.001424,0.012439,-0.307974,-0.003185,0.001831,-0.951388,0.001424,0.001424,0.012439,2.070915,0.0,0.0,0.0017192,0.0,0.0,-0.0077062,0.0,0.0,0.0,4.974506766642179
2023-09-08 15:46:51.385,0.062380873088,0.0431564994304,-0.0164601253888,0.089541249152,0.089550249152,0.0706131245695999,48.359257,-4.557321,48.9498692491136,50.787003,0.6004171221760001,0.5995123721856,0.5864557477376,-0.0827063840767999,-0.0097163740928,-9.8257927536768,0.0109072454655999,-0.0047639961984,-0.0244777494784,33.528472248908805,-0.0824651330944,-0.0101271262336,-9.8261285039104,0.0110114953984,-0.0049732461056,-0.0245308746752,-0.394604,-0.283901,0.808969,-0.086122,-0.014555,-9.819793,359.92906778315984,359.5807811241324,144.0891166385018,0.0014258749952,0.0014258749952,0.0124383750016,-0.308277124224,-0.0032893747328,0.0017166252928,-0.9512892502528,0.0014258749952,0.0014258749952,0.0124383750016,2.070915,0.0,0.0,0.00160370029568,0.0,0.0,-0.00757820032768,0.0,0.0,0.0,4.937980800709312
2023-09-08 15:46:51.400,0.062829,0.04329,-0.016369,0.08974,0.089749,0.070714,48.359257,-4.557321,48.950077,50.787003,0.601079,0.600172,0.586986,-0.080579,-0.009929,-9.824931,0.01197,-0.005655,-0.0246,33.528728,-0.080568,-0.009838,-9.825212,0.01209,-0.005886,-0.024607,-0.392095239296,-0.2840288755456,0.8117856370176,-0.0879846329472,-0.0116772377216,-9.8183841189888,359.9388654032596,359.57635500628027,144.06720090933132,0.001427,0.001427,0.012438,-0.308459,-0.003352,0.001648,-0.95123,0.001427,0.001427,0.012438,2.070915,0.0,0.0,0.0015344,0.0,0.0,-0.0075014,0.0,0.0,0.0,4.916065071538839
2023-09-08 15:46:51.420,0.062977,0.0424955,-0.0157415,0.0886065,0.0886174999999999,0.070033,48.359257,-4.5573215000000005,48.947433,50.787003,0.5883655000000001,0.5875125,0.57532,-0.083762,-0.0105585,-9.8193485,0.0126445,-0.0068875,-0.024481,33.528257,-0.0840115,-0.010742,-9.819091,0.0126895,-0.007103,-0.024527,-0.388750239296,-0.2841993755456,0.8155411370176,-0.0904681329472,-0.0078402377216,-9.8165056189888,359.9538196017125,359.5677319914636,144.03772223077183,0.001422,0.001422,0.012437,-0.308703,-0.0034635,0.001548,-0.9511505,0.001422,0.001422,0.012437,2.070915,0.0,0.0,0.001442,0.0,0.0,-0.007399,0.0,0.0,0.0,4.886586392979353
2023-09-08 15:46:51.425,0.0630139995264,0.0422968775424,-0.015584627008,0.0883231286272,0.0883346286208,0.0698627521792,48.359257,-4.5573216249984,48.9467720084608,50.787003,0.5851871656832001,0.5843476655104,0.5724035373312,-0.0845577398144,-0.0107158729856,-9.817952892864,0.0128131228416,-0.007195621056,-0.0244512503808,33.5281392515072,-0.0848723639808,-0.0109679971071999,-9.8175607695872,0.0128393730816,-0.0074072461055999,-0.024507000256,-0.387914,-0.284242,0.81648,-0.091089,-0.006881,-9.816036,359.95755810347225,359.565576265353,144.03035265546373,0.001420750016,0.001420750016,0.0124367500032,-0.3087639992192,-0.0034913746432,0.00152300032,-0.9511306252544,0.001420750016,0.001420750016,0.0124367500032,2.070915,0.0,0.0,0.00142720018944,0.0,0.0,-0.00725632682624,0.0,0.0,0.0,4.879216817671249
2023-09-08 15:46:51.440,0.063125,0.041701,-0.015114,0.087473,0.087486,0.069352,48.359257,-4.557322,48.944789,50.787003,0.575652,0.574853,0.563654,-0.086945,-0.011188,-9.813766,0.013319,-0.00812,-0.024362,33.527786,-0.087455,-0.011646,-9.81297,0.013289,-0.00832,-0.024447,-0.3853246139519999,-0.2878892655616,0.8207958934144,-0.0839628445952,-0.0075721279488,-9.8093369714176,359.96877380016537,359.5591089766468,144.00824355221235,0.001417,0.001417,0.012436,-0.308947,-0.003575,0.001448,-0.951071,0.001417,0.001417,0.012436,2.070915,0.0,0.0,0.0013828,0.0,0.0,-0.0068283,0.0,0.0,0.0,4.857107714419868
2023-09-08 15:46:51.465,0.063596873792,0.0419347494016,-0.0145352514816,0.087804249152,0.0878166241535999,0.0695226245632,48.3592576249984,-4.557322,48.945104624192,50.787003,0.5766944973312,0.5758911223423999,0.5644958728448,-0.0815987636864,-0.010222377472,-9.8096060106496,0.0139846232959999,-0.0093956217344,-0.0243007501568,33.5284534982912,-0.0809743915904,-0.0100747540224,-9.8085400113408,0.0140039981696,-0.0095537468416,-0.0242276255616,-0.381009,-0.293968,0.827989,-0.072086,-0.008724,-9.798172,134.9890451739527,359.5454654540778,143.97297092824778,0.0014188749952,0.0014188749952,0.0124353750016,-0.3092394992512,-0.0037412495744,0.0013223753216,-0.9509760002432,0.0014188749952,0.0014188749952,0.0124353750016,2.070915,0.0,0.0,0.0013088001894399,0.0,0.0,-0.00611492682624,0.0,0.0,0.0,4.821835090455295
2023-09-08 15:46:51.480,0.06388,0.042075,-0.014188,0.088003,0.088015,0.069625,48.359258,-4.557322,48.945294,50.787003,0.57732,0.576514,0.565001,-0.078391,-0.009643,-9.80711,0.014384,-0.010161,-0.024264,33.528854,-0.077086,-0.009132,-9.805882,0.014433,-0.010294,-0.024096,-0.3835335107712,-0.290332359488,0.8251836130304,-0.0803896604288,-0.0093360026112,-9.79650324288,0.0002864788975654,359.5372792846524,143.95180720939197,0.00142,0.00142,0.012435,-0.309415,-0.003841,0.001247,-0.950919,0.00142,0.00142,0.012435,2.070915,0.0,0.0,0.0012644,0.0,0.0,-0.0056869,0.0,0.0,0.0,4.800671371599492
2023-09-08 15:46:51.505,0.0641887492096,0.0420550000512,-0.0133358146816,0.088334249152,0.0883465616512,0.0697946870656,48.359258,-4.5573216875008,48.9455805617664,50.787003,0.5783806222848,0.5775708722944,0.5658528728191999,-0.0831759877504,-0.0114786203008,-9.8013056398592,0.0142065004543999,-0.0113434969728,-0.0243439997952,33.528659000499204,-0.083576608384,-0.0113744942592,-9.7999432652032,0.0143448752255999,-0.0113889971968,-0.024277249536,-0.387741,-0.284273,0.820508,-0.094229,-0.010356,-9.793722,0.0197669940617668,359.5211290781468,143.91495895552438,0.0014218749952,0.0014218749952,0.0124343750016,-0.3097193742208,-0.0040272495232,0.0011301252992,-0.950819000256,0.0014218749952,0.0014218749952,0.0124343750016,2.070915,0.0,0.0,0.00119040018944,0.0,0.0,-0.00497352682624,0.0,0.0,0.0,4.763823117731903
2023-09-08 15:46:51.520,0.064374,0.042043,-0.0128244999999999,0.088533,0.0885455,0.0698965,48.359258,-4.5573215000000005,48.9457525,50.787003,0.579017,0.578205,0.566364,-0.086047,-0.01258,-9.797823,0.0141,-0.012053,-0.024392,33.528542,-0.087471,-0.01272,-9.79638,0.014292,-0.012046,-0.024386,-0.389122880896,-0.2841871246336,0.816079231104,-0.0897289808,-0.011595380288,-9.790455736064,0.0314553829526821,359.511438888092,143.892849852273,0.001423,0.001423,0.012434,-0.309902,-0.004139,0.00106,-0.950759,0.001423,0.001423,0.012434,2.070915,0.0,0.0,0.0011459999999999,0.0,0.0,-0.0045455,0.0,0.0,0.0,4.741714014480522
2023-09-08 15:46:51.545,0.0646827492096,0.0420230000512,-0.0119723146816,0.088864249152,0.0888770616512,0.0700661870656,48.359258,-4.5573211875008,48.9460390617664,50.787003,0.5800776222848,0.5792618722944,0.5672158728191999,-0.0827763833728,-0.0113012532736,-9.7924155138432,0.0136706260991999,-0.0122354995328,-0.0240682508288,33.528941998976,-0.0828978867072,-0.0110975041536,-9.791523762432,0.0135845018112,-0.0123497492224,-0.0240022509824,-0.391426,-0.284044,0.808698,-0.082229,-0.013661,-9.785012,0.0493602682138967,359.4946082959464,143.85890218981774,0.0014248749952,0.0014248749952,0.0124377499904,-0.31018324928,-0.00432649952,0.0009581252608,-0.9506665002368,0.0014248749952,0.0014248749952,0.0124377499904,2.070915,0.0,0.0,0.00107200018944,0.0,0.0,-0.00383212682624,0.0,0.0,0.0,4.70776635202526
2023-09-08 15:46:51.560,0.064868,0.042011,-0.011461,0.089063,0.089076,0.070168,48.359258,-4.557321,48.946211,50.787003,0.580714,0.579896,0.567727,-0.080814,-0.010534,-9.789171,0.013413,-0.012345,-0.023874,33.529182,-0.080154,-0.010124,-9.78861,0.01316,-0.012532,-0.023772,-0.3949858901888,-0.2873897642752,0.8089908762496,-0.0862692672384,-0.0176393919744,-9.7846459984384,0.0601032727092233,359.4845098717208,143.8385334532946,0.001426,0.001426,0.01244,-0.310352,-0.004439,0.000897,-0.950611,0.001426,0.001426,0.01244,2.070915,0.0,0.0,0.0010276,0.0,0.0,-0.0034041,0.0,0.0,0.0,4.687397615502107
2023-09-08 15:46:51.585,0.0645086259199999,0.0415675636352,-0.0102841280128,0.0887248758656,0.0887375633664,0.0700083129088,48.359258,-4.5573213124992,48.9453631896704,50.787003,0.5807677498624,0.5799484998655999,0.5679463744384,-0.076945259904,-0.0131083684096,-9.7865410067328,0.0121911281279999,-0.0125562494592,-0.023567750784,33.529997622912,-0.0769483832064,-0.0141833646079999,-9.786731879808,0.0119968779776,-0.0125482499584,-0.0235170006528,-0.400919,-0.292966,0.809479,-0.093003,-0.02427,-9.784036,0.0753582349517781,359.46767927957524,143.80444255175723,0.0014278749951999,0.0014278749951999,0.0124393750016,-0.31063324928,-0.0046196245376,0.0008176252032,-0.9505178752384,0.0014278749951999,0.0014278749951999,0.0124393750016,2.070915,0.0,0.0,0.0009536001894399,0.0,0.0,-0.00269072682624,0.0,0.0,0.0,4.653306713964753
2023-09-08 15:46:51.600,0.0642929999999999,0.0413015,-0.009578,0.088522,0.0885345,0.0699124999999999,48.359258,-4.5573215000000005,48.9448545,50.787003,0.5808,0.5799799999999999,0.568078,-0.074624,-0.014653,-9.784963,0.011458,-0.012683,-0.023384,33.530487,-0.075025,-0.016619,-9.785605,0.011299,-0.012558,-0.023364,-0.394898349312,-0.2932450011904,0.8104813792768,-0.0901949880191999,-0.0225764927744,-9.7816723649152,0.0845112747817964,359.45758085534965,143.78398787119815,0.001429,0.001429,0.012439,-0.310802,-0.004728,0.00077,-0.950462,0.001429,0.001429,0.012439,2.070915,0.0,0.0,0.0009092,0.0,0.0,-0.0022627,0.0,0.0,0.0,4.632852033405669
2023-09-08 15:46:51.620,0.0640054999999999,0.04094675,-0.0086365,0.0882515,0.08826375,0.0697847499999999,48.359258,-4.55732175,48.94417625,50.787003,0.580843,0.580022,0.5682535,-0.0809635,-0.0142825,-9.7815675,0.0101895,-0.012388,-0.0232535,33.5303345,-0.081464,-0.015274,-9.7815745,0.0100215,-0.0122605,-0.023277,-0.386870849312,-0.2936170011904,0.8118178792767999,-0.0864509880192,-0.0203184927744,-9.7785208649152,0.0943088530785334,359.44480389651824,143.7566004885909,0.001424,0.001424,0.012438,-0.3110285,-0.0048605,0.0007245,-0.9503875,0.001424,0.001424,0.012438,2.070915,0.0,0.0,0.00085,0.0,0.0,-0.001692,0.0,0.0,0.0,4.60546465079841
2023-09-08 15:46:51.625,0.06393362592,0.0408580636352,-0.0084011280128,0.0881838758656,0.0881960633664,0.0697528129087999,48.359258,-4.5573218124992,48.9440066896704,50.787003,0.5808537498624,0.5800324998656,0.5682973744384,-0.0825483547136,-0.0141898761856,-9.7807186358656,0.0098723790592,-0.012314250944,-0.0232208754176,33.530296375488,-0.0830737293952,-0.014937754304,-9.7805668878976,0.009702129088,-0.012186125952,-0.0232552502784,-0.384864,-0.29371,0.812152,-0.085515,-0.019754,-9.777733,0.0967582163004671,359.44160969769666,143.7497537305787,0.001422750016,0.001422750016,0.0124377500032,-0.3110851242752,-0.004893624576,0.0007131251456,-0.9503688752384,0.001422750016,0.001422750016,0.0124377500032,2.070915,0.0,0.0,0.00085369995264,0.0,0.0,-0.0015202521984,0.0,0.0,0.0,4.598617892786223
2023-09-08 15:46:51.640,0.063718,0.040592,-0.007695,0.087981,0.087993,0.069657,48.359258,-4.557322,48.943498,50.787003,0.580886,0.580064,0.568429,-0.087303,-0.013912,-9.778172,0.008921,-0.012093,-0.023123,33.530182,-0.087903,-0.013929,-9.777544,0.008744,-0.011963,-0.02319,-0.3835563694208,-0.2902802353664,0.8150833875072,-0.0844394954112,-0.0184047442432,-9.769917966656,0.1041064313752705,359.4320269376868,143.72921310598363,0.001419,0.001419,0.012437,-0.311255,-0.004993,0.000679,-0.950313,0.001419,0.001419,0.012437,2.070915,0.0,0.0,0.0008648,0.0,0.0,-0.0010049999999999,0.0,0.0,0.0,4.578077268191152
2023-09-08 15:46:51.665,0.0635405004544,0.0405213751808,-0.0067181275007999,0.0883109991552,0.0883229991552,0.0698269995648,48.359258,-4.5573213750016,48.9437142494464,50.787003,0.5819447472896,0.5811189972992,0.5692814978176,-0.0861823778688,-0.0152107466752,-9.771790766336,0.0073166291072,-0.0115605013631999,-0.0228411257216,33.5303676245248,-0.0859236300672,-0.015322746432,-9.7707046425088,0.0070746292736,-0.0114886262144,-0.0228643758336,-0.381377,-0.284564,0.819969,-0.082647,-0.016156,-9.756893,0.1118771515786376,359.4171300731495,143.69512220444628,0.0014208749952,0.0014208749952,0.0124357500032,-0.3115368742784,-0.0051373746304,0.0006565000576,-0.9502198752384,0.0014208749952,0.0014208749952,0.0124357500032,2.070915,0.0,0.0,0.0008832999526399,0.0,0.0,-0.0001462521983999,0.0,0.0,0.0,4.543986366653797
2023-09-08 15:46:51.680,0.063434,0.040479,-0.006132,0.088509,0.088521,0.069929,48.359258,-4.557321,48.943844,50.787003,0.58258,0.581752,0.569793,-0.08551,-0.01599,-9.767962,0.006354,-0.011241,-0.022672,33.530479,-0.084736,-0.016159,-9.766601,0.006073,-0.011204,-0.022669,-0.3860697700224,-0.2878643890816,0.82187213312,-0.0850511352576,-0.0139746156928,-9.7555763693824,0.1165396155296094,359.40819189340937,143.67466752388717,0.001422,0.001422,0.012435,-0.311706,-0.005224,0.000643,-0.950164,0.001422,0.001422,0.012435,2.070915,0.0,0.0,0.0008944,0.0,0.0,0.000369,0.0,0.0,0.0,4.523531686094685
2023-09-08 15:46:51.705,0.0629813449088,0.0403861877376,-0.0052407522816,0.0885244687104,0.0885361562112,0.0699435312128,48.359258,-4.557321,48.9437296252928,50.7871590933504,0.5831754672256,0.5823448109824001,0.5703558110592,-0.0837831294208,-0.017564995968,-9.765887005312,0.0047146291968,-0.0106710014592,-0.0225026254336,33.5298140017024,-0.0840978766336,-0.0176083712896,-9.7655891275904,0.0045092540032,-0.0106390014464,-0.0224402505856,-0.393891,-0.293365,0.825044,-0.089058,-0.010339,-9.753382,0.1207293586807336,359.39461999038133,143.64175834477706,0.0014238749952,0.0014238749952,0.0124343750016,-0.3119784993023999,-0.0053477496832,0.0006467499903999,-0.9500740002304,0.0014238749952,0.0014238749952,0.0124343750016,2.070915,0.0,0.0,0.00091289995264,0.0,0.0,0.0012277478016,0.0,0.0,0.0,4.490622506984579
2023-09-08 15:46:51.720,0.06270975,0.0403305,-0.004706,0.08853375,0.08854525,0.06995225,48.359258,-4.557321,48.943661,50.78725275,0.58353275,0.5827005000000001,0.5706935,-0.082747,-0.01851,-9.764642,0.003731,-0.010329,-0.022401,33.529415,-0.083715,-0.018478,-9.764982,0.003571,-0.0103,-0.022303,-0.3935158733994666,-0.2929901234005333,0.8245083727146667,-0.0869458659882666,-0.0113235042005333,-9.754056877879467,0.12324322173264,359.3864767929739,143.62201270251464,0.001425,0.001425,0.012434,-0.312142,-0.005422,0.000649,-0.95002,0.001425,0.001425,0.012434,2.070915,0.0,0.0,0.0009239999999999,0.0,0.0,0.001743,0.0,0.0,0.0,4.4708768647221575
2023-09-08 15:46:51.820,0.060899125,0.0399592499999999,-0.0011409999999999,0.088595625,0.088605875,0.070010375,48.359258,-4.557321,48.9432035,50.787877125,0.585914625,0.58507175,0.57294475,-0.0849278333333333,-0.0170858333333333,-9.757407,-0.0015123333333333,-0.0056831666666666,-0.0207551666666666,33.5298375,-0.0836358333333333,-0.0167296666666666,-9.757955333333332,-0.0016973333333333,-0.0057041666666666,-0.0207113333333333,-0.3910150400661333,-0.2904909567338666,0.8209375393813334,-0.0728650326549333,-0.0178868375338666,-9.758556044546134,0.1153650520495911,359.3556803114856,143.49834931173226,0.0014225,0.0014225,0.0124356666666666,-0.313167,-0.0056553333333333,0.0008048333333333,-0.9496808333333332,0.0014225,0.0014225,0.0124356666666666,2.070915,0.0,0.0,0.000998,0.0,0.0,0.005178,0.0,0.0,0.0,4.347213473939775
2023-09-08 15:46:51.825,0.0608085949088,0.0399406877376,-0.0009627522815999,0.0885987187104,0.0886089062112,0.0700132812128,48.359258,-4.557321,48.9431806252928,50.7879083433504,0.5860337172256,0.5851903109824,0.5730573110592,-0.0850368736042666,-0.0170146259114666,-9.7570452546304,-0.0017744966442666,-0.0054508779733333,-0.0206728760533333,33.5298586247296,-0.0836318750506666,-0.0166422511189333,-9.757604004497066,-0.0019607466282666,-0.0054743779413333,-0.0206317510186666,-0.39089,-0.290366,0.820759,-0.072161,-0.018215,-9.758781,0.1149711486074673,359.354140507121,143.4921662213377,0.0014223750016,0.0014223750016,0.0124357499989333,-0.313218249344,-0.0056669998506666,0.0008126249002666,-0.9496638752170669,0.0014223750016,0.0014223750016,0.0124357499989333,2.070915,0.0,0.0,0.00102264968448,0.0,0.0,0.0053337480064,0.0,0.0,0.0,4.341030383545217
2023-09-08 15:46:51.840,0.060537,0.039885,-0.000428,0.088608,0.088618,0.070022,48.359258,-4.557321,48.943112,50.788002,0.586391,0.585546,0.573395,-0.085364,-0.016801,-9.75596,-0.002561,-0.004754,-0.020426,33.529922,-0.08362,-0.01638,-9.75655,-0.002751,-0.004785,-0.020393,-0.3885676150912,-0.2916301303936,0.8190411176704,-0.073227879552,-0.0192815045504,-9.764925401216,0.1137894181129814,359.349521015188,143.47361663357577,0.001422,0.001422,0.012436,-0.313372,-0.005702,0.000836,-0.949613,0.001422,0.001422,0.012436,2.070915,0.0,0.0,0.0010965999999999,0.0,0.0,0.005801,0.0,0.0,0.0,4.322480795783292
2023-09-08 15:46:51.865,0.0599070016128,0.0400731245184,0.0002082483711999,0.0889373741568,0.0889479991552,0.0701913745664,48.359258,-4.557321,48.9431732498432,50.788002,0.58746912224,0.5866197472512,0.5742599977856,-0.0797471393792,-0.0166741253248,-9.7572681216512,-0.0030459987584,-0.0034346283776,-0.0203785001215999,33.5294976260864,-0.0793800108544,-0.0170062483968,-9.756953123968,-0.0031328740224,-0.003444378432,-0.0203480001152,-0.384697,-0.293737,0.816178,-0.075006,-0.021059,-9.775166,0.1080240450588703,359.34690690193986,143.44389452404218,0.0014238749952,0.0014238749952,0.0124353750016,-0.3136182493696,-0.0057076249856,0.000892249856,-0.949531750208,0.0014238749952,0.0014238749952,0.0124353750016,2.070915,0.0,0.0,0.0012198496844799,0.0,0.0,0.0065797480064,0.0,0.0,0.0,4.292758686249698
2023-09-08 15:46:51.880,0.059529,0.040186,0.00059,0.089135,0.089146,0.070293,48.359258,-4.557321,48.94321,50.788002,0.588116,0.587264,0.574779,-0.076377,-0.016598,-9.758053,-0.003337,-0.002643,-0.02035,33.529243,-0.076836,-0.017382,-9.757195,-0.003362,-0.00264,-0.020321,-0.3834422446464,-0.2938015002752,0.8175865060096,-0.0811770263296,-0.0222143799296,-9.7660935862912,0.1045647976113752,359.3453384232835,143.42606113657993,0.001425,0.001425,0.012435,-0.313766,-0.005711,0.000926,-0.949483,0.001425,0.001425,0.012435,2.070915,0.0,0.0,0.0012938,0.0,0.0,0.007047,0.0,0.0,0.0,4.274925298787451
2023-09-08 15:46:51.905,0.0590465012352,0.0404303743744,0.0015018726656,0.0894649991552,0.0894759991552,0.070461749568,48.359258,-4.557321,48.9432437499136,50.788002,0.589206622208,0.5883502472192,0.5756502477696,-0.079180117824,-0.0168717492992,-9.7543111345792,-0.0043763723392,-0.0017811272064,-0.0201068756224,33.5293198748032,-0.0792403688448,-0.0173176251648,-9.7535425093504,-0.0044982470912,-0.0016237526015999,-0.0200853756032,-0.381351,-0.293909,0.819934,-0.091462,-0.02414,-9.750973,0.0962211210796491,359.34505194511934,143.39623159773473,0.0014268749952,0.0014268749952,0.0124337500032,-0.3140134993664,-0.0056903750528,0.0009972498175999,-0.9494011252096,0.0014268749952,0.0014268749952,0.0124337500032,2.070915,0.0,0.0,0.00141704968448,0.0,0.0,0.0078257480063999,0.0,0.0,0.0,4.245095759942245
2023-09-08 15:46:51.920,0.058757,0.040577,0.002049,0.089663,0.089674,0.070563,48.359258,-4.557321,48.943264,50.788002,0.589861,0.589002,0.576173,-0.080862,-0.017036,-9.752066,-0.005,-0.001264,-0.019961,33.529366,-0.080683,-0.017279,-9.751351,-0.00518,-0.001014,-0.019944,-0.3825986303232,-0.2950145047167999,0.818522118976,-0.0842893443968,-0.020838110912,-9.762596174592,0.091214880984827,359.3448800570474,143.3783337522455,0.001428,0.001428,0.012433,-0.314162,-0.005678,0.00104,-0.949352,0.001428,0.001428,0.012433,2.070915,0.0,0.0,0.001491,0.0,0.0,0.008293,0.0,0.0,0.0,4.227197914453029
2023-09-08 15:46:51.945,0.0582526262911999,0.0409694989952,0.0024796238975999,0.0899936241536,0.0900046241536,0.0707304995712,48.359258,-4.557321,48.9432571250176,50.788002,0.5909634971776,0.5901007471872,0.577051122752,-0.0781632569088,-0.0164728764416,-9.7610797269248,-0.005456248832,-5.650309120000009e-05,-0.019814125376,33.530329122534404,-0.078070506688,-0.016682126528,-9.7618897230208,-0.0055149991423999,9.537216000000005e-05,-0.0197683754496,-0.384678,-0.296857,0.816169,-0.072335,-0.015335,-9.781968,0.0821191992721299,359.3471002628198,143.35029470192643,0.0014298749952,0.0014298749952,0.0124373749888,-0.3143951244032,-0.005634250112,0.0011112498176,-0.9492751251968,0.0014298749952,0.0014298749952,0.0124373749888,2.070915,0.0,0.0,0.0016947494784,0.0,0.0,0.00886899852544,0.0,0.0,0.0,4.199158864133949
2023-09-08 15:46:51.960,0.05795,0.041205,0.002738,0.090192,0.090203,0.070831,48.359258,-4.557321,48.943253,50.788002,0.591625,0.59076,0.577578,-0.076544,-0.016135,-9.766488,-0.00573,0.000668,-0.019726,33.530907,-0.076503,-0.016324,-9.768213,-0.005716,0.000761,-0.019663,-0.385806754816,-0.2968138748159999,0.8177803818752001,-0.0753496378624,-0.0123859874175999,-9.7781032335104,0.0766617529885041,359.34843239537724,143.33347115688676,0.001431,0.001431,0.01244,-0.314535,-0.005608,0.001154,-0.949229,0.001431,0.001431,0.01244,2.070915,0.0,0.0,0.0018169999999999,0.0,0.0,0.0092146,0.0,0.0,0.0,4.182335319094278
2023-09-08 15:46:51.985,0.0574700012288,0.0416043739776,0.0031679988992,0.090523249152,0.0905336241536,0.0709984995712,48.359258,-4.557321,48.9432286250624,50.788002,0.592740622144,0.5918712471552,0.5784629977344,-0.0759727514624,-0.015881875648,-9.7691742431232,-0.0057243750144,0.001058624,-0.019854124672,33.5305301259648,-0.0764617501056,-0.0150571282432,-9.7698854957184,-0.0056635001344,0.001192248896,-0.0198448745344,-0.387688,-0.296742,0.820466,-0.080374,-0.007471,-9.771662,0.0676376908168519,359.3516552747243,143.30392809620577,0.0014328749951999,0.0014328749951999,0.0124387500032,-0.3147799993728,-0.0055561251328,0.0012208748288,-0.949147750208,0.0014328749951999,0.0014328749951999,0.0124387500032,2.070915,0.0,0.0,0.0020207494784,0.0,0.0,0.00979059852544,0.0,0.0,0.0,4.152792258413285
2023-09-08 15:46:52.000,0.057182,0.041844,0.003426,0.090722,0.090732,0.071099,48.359258,-4.557321,48.943214,50.788002,0.59341,0.592538,0.578994,-0.07563,-0.01573,-9.770786,-0.005721,0.001293,-0.019931,33.530304,-0.076437,-0.014297,-9.770889,-0.005632,0.001451,-0.019954,-0.388574878784,-0.2932364850432,0.8281302827008,-0.0775397379072,-0.0079217519232,-9.771461374144,0.0622232165512074,359.35358901553343,143.28620213878847,0.001434,0.001434,0.012438,-0.314927,-0.005525,0.001261,-0.949099,0.001434,0.001434,0.012438,2.070915,0.0,0.0,0.002143,0.0,0.0,0.0101362,0.0,0.0,0.0,4.135066300995987
