timestamp,north_vel,east_vel,down_vel,north_vel_dev,east_vel_dev,down_vel_dev,lat,long,alt,undulation,lat_dev,long_dev,alt_dev,accel_x,accel_y,accel_z,gyro_x,gyro_y,gyro_z,temp,delta_vel_x,delta_vel_y,delta_vel_z,delta_angle_x,delta_angle_y,delta_angle_z,mag_x,mag_y,mag_z,accel_x.1,accel_y.1,accel_z.1,roll,pitch,yaw,roll_dev,pitch_dev,yaw_dev,w_quat,x_quat,y_quat,z_quat,roll_dev.1,pitch_dev.1,yaw_dev.1,heave_period,surge_motion,sway_motion,heave_motion,surge_accel,sway_accel,heave_accel,surge_vel,sway_vel,heave_vel,wave_angle
2023-09-08 16:01:28.840,-0.107966,0.11889,-0.025346,0.090161,0.089972,0.072566,48.359266,-4.5573,50.699627,50.787003,0.593079,0.592162,0.583116,-0.040628,-0.04181,-10.237881,-0.082178,-0.125023,0.013922,33.038822,-0.04137,-0.038445,-10.24333,-0.082308,-0.125208,0.014138,0.370824,0.087014,0.768514,-0.013032,-0.073225,-10.150179,0.0340336930307709,0.1171125733247402,343.73384278779497,0.001465,0.00148,0.011926,-0.989941,-0.000439,-0.00097,0.141473,0.001465,0.00148,0.011926,2.471677,0.0,0.0,0.067635,0.0,0.0,-0.040476,0.0,0.0,0.0,204.5827069500025
2023-09-08 16:01:28.865,-0.108232665984,0.1182339600128,-0.034177227392,0.0905091241088,0.0903186657792,0.0727455828736,48.359266,-4.5573,50.7008190802816,50.787003,0.5941704555392,0.5932469972223999,0.5840272476671999,-0.0322711463936,-0.0365075135744,-10.238962247232,-0.0778930109696,-0.1263429966208,0.0154144961792,33.0384670009088,-0.0337312695552,-0.0354693826176,-10.2354443951872,-0.0766911393792,-0.1266461213184,0.0156692460799999,0.370824,0.087014,0.768514,-0.013032,-0.073225,-10.150179,224.92688781595604,224.9351242758581,343.7607359254573,0.0014674999936,0.0014818749951999,0.011926,-0.9899734999168,0.0007053720704,0.0004662463232,0.1412411255936,0.0014674999936,0.0014818749951999,0.011926,2.471677,0.0,0.0,0.067635,0.0,0.0,-0.040476,0.0,0.0,0.0,204.60960008766483
2023-09-08 16:01:28.880,-0.1083926666666666,0.1178403333333333,-0.039476,0.090718,0.0905266666666666,0.0728533333333333,48.359266,-4.5573,50.701534333333335,50.787003,0.5948253333333333,0.5938979999999999,0.5845739999999999,-0.027257,-0.033326,-10.239611,-0.075322,-0.127135,0.01631,33.038254,-0.029148,-0.033684,-10.230713,-0.073321,-0.127509,0.016588,0.3699451212501333,0.0874532518741333,0.7665744917248,-0.0148707578453333,-0.0583850616832,-10.134889309764269,359.86352145319984,359.82685215431144,343.7768719182093,0.001469,0.001483,0.011926,-0.989993,0.001392,0.001328,0.141102,0.001469,0.001483,0.011926,2.471677,0.0,0.0,0.067635,0.0,0.0,-0.040476,0.0,0.0,0.0,204.6257360804168
2023-09-08 16:01:28.960,-0.109246,0.115741,-0.067736,0.091832,0.091636,0.073428,48.359266,-4.5573,50.705349,50.787003,0.598318,0.59737,0.58749,-0.0328743333333333,-0.0205873333333333,-10.187119666666666,-0.0496433333333333,-0.123637,0.0191846666666666,33.038254,-0.0368753333333333,-0.0262466666666666,-10.185796333333332,-0.048133,-0.1234796666666666,0.0192886666666666,0.3652577879167999,0.0897959185407999,0.7562304917248,-0.024677424512,0.0207609383167999,-10.0533446430976,359.630709602445,359.26111362739925,343.8717155318966,0.0014663333333333,0.0014803333333333,0.0119233333333333,-0.990084,0.004378,0.005929,0.140284,0.001476,0.00149,0.011933,2.471677,0.0,0.0,0.067635,0.0,0.0,-0.040476,0.0,0.0,0.0,204.7205796941041
2023-09-08 16:01:28.980,-0.1055369999999999,0.113281,-0.072858,0.0908414999999999,0.090652,0.072916,48.359266,-4.5573,50.6989115,50.787003,0.5972770000000001,0.596338,0.5869074999999999,-0.0342786666666666,-0.0174026666666666,-10.173996833333334,-0.0432236666666666,-0.1227625,0.0199033333333333,33.038254,-0.0388071666666666,-0.0243873333333333,-10.174567166666666,-0.041836,-0.1224723333333333,0.0199638333333333,0.3640859545834666,0.0903815852074666,0.7536444917248,-0.0271290911786666,0.0405474383167999,-10.032958476430936,359.5725066397563,359.1196789956712,343.8954264353184,0.0014656666666666,0.0014796666666666,0.0119226666666666,-0.9901,0.004911,0.0070825,0.1400934999999999,0.0014705,0.0014845,0.0119275,2.471677,0.0,0.0,0.067635,0.0,0.0,-0.040476,0.0,0.0,0.0,204.74429059752595
2023-09-08 16:01:28.985,-0.1046097618688,0.112666007872,-0.0741384836096,0.0905938781696,0.0904060031488,0.0727880016383999,48.359266,-4.5573,50.6973021456,50.787003,0.5970167533312,0.5960800033024,0.5867618768639999,-0.0346297455061333,-0.0166065101909333,-10.170716166993069,-0.0416187705429333,-0.1225438777984,0.0200829977002666,33.038254,-0.0392901188181333,-0.0239225059498666,-10.171759910933332,-0.0402617701504,-0.1222205032234666,0.0201326228394666,0.363793,0.090528,0.752998,-0.027742,0.045494,-10.027862,359.5579560853336,359.08432079033,343.901354085299,0.0014655000021333,0.0014795000021333,0.0119225000021333,-0.9901039999488,0.0050442482944,0.0073708713088,0.1400458756096,0.0014691250176,0.0014831250176,0.0119261250176,2.4723008420147203,0.0,0.0,0.06731445410304,0.0,0.0,-0.04215852846336,0.0,0.0,0.0,204.7502182475065
2023-09-08 16:01:29.000,-0.101828,0.110821,-0.07798,0.089851,0.089668,0.072404,48.359266,-4.5573,50.692474,50.787003,0.596236,0.595306,0.586325,-0.035683,-0.014218,-10.160874,-0.036804,-0.121888,0.020622,33.038254,-0.040739,-0.022528,-10.163338,-0.035539,-0.121465,0.020639,0.3630039966336,0.0846806000512,0.7621172889087999,-0.0306362623488,0.035370831808,-10.0383759198592,359.5143036770676,358.9782443639432,343.91913733874026,0.001465,0.001479,0.011922,-0.990116,0.005444,0.008236,0.139903,0.001465,0.001479,0.011922,2.4741724,0.0,0.0,0.0663528,0.0,0.0,-0.0472062,0.0,0.0,0.0,204.76800150094775
2023-09-08 16:01:29.025,-0.0990148822016,0.1077341329024,-0.0868506022912,0.0901966241152,0.09001174912,0.0725839995392,48.359266,-4.5572993750016,50.694714619264,50.787003,0.5973116222464,0.5963753722624,0.5872287476864,-0.0438323541376,-0.013346127232,-10.1441577927936,-0.0273702741504,-0.1186811332096,0.0207394996991999,33.0383108748544,-0.0424064957312,-0.0156692675584,-10.155653644672,-0.026610897856,-0.118321258048,0.0207871246208,0.361689,0.074935,0.777316,-0.03546,0.018499,-10.055899,359.48171678589216,358.8129464632117,343.9507931758821,0.0014674999936,0.0014808749952,0.0119213750016,-0.990137874944,0.0059239987711999,0.0096259964416,0.1396361256832,0.0014674999936,0.0014808749952,0.0119213750016,2.47729164201472,0.0,0.0,0.06475005410304,0.0,0.0,-0.05561892846336,0.0,0.0,0.0,204.7996573380896
2023-09-08 16:01:29.040,-0.097327,0.105882,-0.092173,0.090404,0.090218,0.072692,48.359266,-4.557299,50.696059,50.787003,0.597957,0.597017,0.587771,-0.048722,-0.012823,-10.134128,-0.02171,-0.116757,0.02081,33.038345,-0.043407,-0.011554,-10.151043,-0.021254,-0.116435,0.020876,0.3745748049792,0.0767136325888,0.7716891009919999,-0.0330217395968,0.0157491132672,-10.0962367971072,359.4621645177107,358.7137670457108,343.96978680782985,0.001469,0.001482,0.011921,-0.990151,0.006212,0.01046,0.139476,0.001469,0.001482,0.011921,2.4791632000000003,0.0,0.0,0.0637884,0.0,0.0,-0.0606666,0.0,0.0,0.0,204.81865097003737
2023-09-08 16:01:29.065,-0.0932282604928,0.1019938849536,-0.1002548543104,0.0907496241152,0.09056174912,0.0728713745408,48.359266,-4.557299,50.6987239931776,50.787003,0.5990451222144,0.5980988722303999,0.5886822476672,-0.0366207809792,-0.0129204997504,-10.1409817324544,-0.0141850192639999,-0.1139813821056,0.021050624384,33.0378518762624,-0.0357138946944,-0.013041496192,-10.1222699486592,-0.0133633952,-0.1135587573632,0.0210816244736,0.396051,0.079678,0.762311,-0.028958,0.011166,-10.163466,359.44748251179647,358.5550581427554,344.0032331334978,0.0014708749952,0.0014844999936,0.011921,-0.990172874944,0.0065282491903999,0.0118156215296,0.1391928757248,0.0014708749952,0.0014844999936,0.011921,2.48228244201472,0.0,0.0,0.06218565410304,0.0,0.0,-0.06907932846336,0.0,0.0,0.0,204.8520972957053
2023-09-08 16:01:29.080,-0.090769,0.099661,-0.105104,0.090957,0.090768,0.072979,48.359266,-4.557299,50.700323,50.787003,0.599698,0.598748,0.589229,-0.02936,-0.012979,-10.145094,-0.00967,-0.112316,0.021195,33.037556,-0.031098,-0.013934,-10.105006,-0.008629,-0.111833,0.021205,0.3969468788224,0.073842975104,0.7546568423423999,-0.0310137587712,-0.0152937378943999,-10.1263873417984,359.4386732481103,358.4598321509088,344.02330106589505,0.001472,0.001486,0.011921,-0.990186,0.006718,0.012629,0.139023,0.001472,0.001486,0.011921,2.484154,0.0,0.0,0.061224,0.0,0.0,-0.074127,0.0,0.0,0.0,204.87216522810257
2023-09-08 16:01:29.105,-0.0858646375551999,0.095364136,-0.1135246034432,0.0913026241152,0.0911111241216,0.0731589995392,48.359266,-4.557299,50.7032704924544,50.787003,0.6007986221824,0.5998423721984,0.5901477476479999,-0.0357549836288,-0.0180277370752,-10.1220428090112,-0.0033212662528,-0.1088897587712,0.0218068734336,33.0378703741952,-0.0371311095552,-0.0139677499136,-10.1082178667776,-0.0029265145983999,-0.108273634112,0.0218481233536,0.39844,0.064118,0.7419,-0.03444,-0.059393,-10.06459,359.4369185693547,358.3092878756325,344.0570696794977,0.0014744999936,0.0014878749952,0.0119247499904,-0.9902072499456,0.006911749504,0.0139296216704,0.1387348757376,0.0014744999936,0.0014878749952,0.0119247499904,2.484154,0.0,0.0,0.05876975628288,0.0,0.0,-0.0819032300928,0.0,0.0,0.0,204.90593384170523
2023-09-08 16:01:29.120,-0.082922,0.092786,-0.118577,0.09151,0.091317,0.073267,48.359266,-4.557299,50.705039,50.787003,0.601459,0.600499,0.590699,-0.039592,-0.021057,-10.108212,0.000488,-0.106834,0.022174,33.038059,-0.040751,-0.013988,-10.110145,0.000495,-0.106138,0.022234,0.3937888551552,0.0689791457408,0.7453346396544,-0.0263534654975999,-0.0453019398784,-10.049987437696,359.4358657549142,358.2189606938358,344.0773309859759,0.001476,0.001489,0.011927,-0.99022,0.007028,0.01471,0.138562,0.001476,0.001489,0.011927,2.484154,0.0,0.0,0.0572972,0.0,0.0,-0.086569,0.0,0.0,0.0,204.9261951481834
2023-09-08 16:01:29.145,-0.0765820162304,0.0881347619072,-0.126992603456,0.0918562491135999,0.09166074912,0.073445124544,48.359266,-4.557299,50.7084758662016,50.787003,0.6025721221504,0.601605247168,0.591623997632,-0.0286714029568,-0.0139513931904,-10.0947270345216,0.0053254876159999,-0.1031221345024,0.0223321245952,33.0376802509696,-0.0301316521856,-0.0122248795136,-10.1035993917568,0.0055843619711999,-0.1025736341248,0.0223789996288,0.386037,0.077081,0.751059,-0.012876,-0.021817,-10.02565,359.4455702027258,358.0765810462387,344.11367790305616,0.0014778749952,0.0014914999936,0.0119263750016,-0.9902431249408,0.0071104997888,0.0159543718144,0.1382501257984,0.0014778749952,0.0014914999936,0.0119263750016,2.484154,0.0,0.0,0.05484295628288,0.0,0.0,-0.0943452300928,0.0,0.0,0.0,204.96254206526368
2023-09-08 16:01:29.160,-0.072778,0.085344,-0.132042,0.092064,0.091867,0.073552,48.359266,-4.557299,50.710538,50.787003,0.60324,0.602269,0.592179,-0.022119,-0.009688,-10.086636,0.008228,-0.100895,0.022427,33.037453,-0.02376,-0.011167,-10.099672,0.008638,-0.100435,0.022466,0.3922586515456,0.0721006037503999,0.7565617734784,-0.0144667567872,-0.0101923254016,-10.0075509227776,359.45139291116226,357.99115267449184,344.13548620218165,0.001479,0.001493,0.011926,-0.990257,0.00716,0.016701,0.138063,0.001479,0.001493,0.011926,2.484154,0.0,0.0,0.0533704,0.0,0.0,-0.099011,0.0,0.0,0.0,204.9843503643892
2023-09-08 16:01:29.180,-0.066068,0.0818315,-0.1340645,0.0907254999999999,0.0905364999999999,0.0728595,48.359266,-4.557299,50.6953015,50.787003,0.6016275,0.60067,0.591198,-0.020809,-0.0082055,-10.074398,0.009831,-0.0978955,0.0221815,33.037636,-0.022904,-0.0107634999999999,-10.0928035,0.0101915,-0.097518,0.0221505,0.4005541515456,0.0654601037504,0.7638987734784,-0.0165877567872,0.0053071745984,-9.9834189227776,359.4629666586239,357.883579848456,344.1542505699722,0.0014715,0.0014854999999999,0.011919,-0.9902625,0.0071865,0.017646,0.137901,0.0014715,0.0014854999999999,0.011919,2.484154,0.0,0.0,0.051407,0.0,0.0,-0.105232,0.0,0.0,0.0,205.0031147321797
2023-09-08 16:01:29.185,-0.064390521472,0.08095338624,-0.134570118528,0.0903908792832,0.0902038792576,0.072686377216,48.359266,-4.557299,50.6914924237568,50.787003,0.60122438016,0.6002702551168,0.5909527531392,-0.020481504192,-0.007834879744,-10.0713385391616,0.0102317448704,-0.0971456345983999,0.0221201257856,33.0376817494144,-0.0226900027392,-0.0106626262912,-10.0910863969792,0.0105798700288,-0.0967887593344,0.0220716260096,0.402628,0.0638,0.765733,-0.017118,0.009182,-9.977386,359.4658600584533,357.8566869861801,344.1589416018739,0.001469625024,0.001483625024,0.0119172500224,-0.9902638749824,0.0071931249151999,0.017882246976,0.1378605005184,0.001469625024,0.001483625024,0.0119172500224,2.4841956432169603,0.0,0.0,0.05067592810784,0.0,0.0,-0.10505462102048,0.0,0.0,0.0,205.0078057640814
2023-09-08 16:01:29.200,-0.059358,0.078319,-0.136087,0.089387,0.089206,0.072167,48.359266,-4.557299,50.680065,50.787003,0.600015,0.599071,0.590217,-0.019499,-0.006723,-10.06216,0.011434,-0.094896,0.021936,33.037819,-0.022048,-0.01036,-10.085935,0.011745,-0.094601,0.021835,0.406805517824,0.0671851394432,0.7517818154752,-0.0181740045056,-0.0058510641408,-9.9692342152192,359.4745404060855,357.7760070224202,344.1730149377628,0.001464,0.001478,0.011912,-0.990268,0.007213,0.018591,0.137739,0.001464,0.001478,0.011912,2.4843205750000004,0.0,0.0,0.048482675,0.0,0.0,-0.104522475,0.0,0.0,0.0,205.0218790999703
2023-09-08 16:01:29.225,-0.0510242713344,0.0733915126144,-0.1428382327168,0.0897301241216,0.0895466241279999,0.0723469995392,48.359266,-4.557299,50.6840549897856,50.787003,0.6010849972608,0.6001341222784,0.5911194976896,-0.0206189971328,-0.0113561131392,-10.0480281611776,0.0107358767872,-0.090205387008,0.0219116250624,33.0382289989504,-0.019841755648,-0.0111524979712,-10.0476969728896,0.0106187528832,-0.0896272627328,0.0219587496832,0.413768,0.072827,0.72853,-0.019934,-0.030906,-9.955648,359.48592791311165,357.6533585583809,344.2088247082852,0.0014664999936,0.0014804999936,0.0119113750016,-0.9902892499456,0.0072554998912,0.0196666222464,0.1374290007936,0.0014664999936,0.0014804999936,0.0119113750016,2.48452879321696,0.0,0.0,0.04482727810784,0.0,0.0,-0.10363557102048,0.0,0.0,0.0,205.0576888704927
2023-09-08 16:01:29.240,-0.046024,0.070435,-0.146889,0.089936,0.089751,0.072455,48.359266,-4.557299,50.686449,50.787003,0.601727,0.600772,0.591661,-0.021291,-0.014136,-10.039549,0.010317,-0.087391,0.021897,33.038475,-0.018518,-0.011628,-10.024754,0.009943,-0.086643,0.022033,0.402122325312,0.0733190020992,0.7355699050368,-0.02440589408,-0.0163428128639999,-9.9553701238144,359.4927604639707,357.5797689775879,344.2303107172758,0.001468,0.001482,0.011911,-0.990302,0.007281,0.020312,0.137243,0.001468,0.001482,0.011911,2.4846537250000003,0.0,0.0,0.042634025,0.0,0.0,-0.103103425,0.0,0.0,0.0,205.07917487948333
2023-09-08 16:01:29.265,-0.0355887142144,0.06367514230528,-0.1480995594009599,0.0899122500608,0.08972700006144,0.07242818756864,48.359266,-4.557299,50.68739918506752,50.78706543734016,0.60082931479808,0.59987843978752,0.5908028146969599,-0.0285259814784,-0.0150772475904,-10.0219540450432,0.0073838825088,-0.0827303869312,0.0216145007231999,33.038343750336004,-0.0294748469504,-0.0140448688128,-10.0206771354368,0.0073142567296,-0.0820411367808,0.0214817514112,0.382713,0.074139,0.747303,-0.031859,0.007929,-9.954907,359.4980961197785,357.46764858608213,344.2640077113374,0.0014698749952,0.0014838749952,0.0119103750016,-0.990320749952,0.007362249792,0.0212894974976,0.136952375744,0.0014698749952,0.0014838749952,0.0119103750016,2.48486194321696,0.0,0.0,0.03897862810784,0.0,0.0,-0.10221652102048,0.0,0.0,0.0,205.1128718735449
2023-09-08 16:01:29.280,-0.0293275,0.0596192,-0.1488258999999999,0.089898,0.0897126,0.0724121,48.359266,-4.557299,50.687969300000006,50.7871029,0.6002907,0.5993423,0.5902879,-0.032867,-0.015642,-10.011397,0.005624,-0.079934,0.021445,33.038265,-0.036049,-0.015495,-10.018231,0.005737,-0.07928,0.021151,0.3846934251164444,0.0727542024248888,0.7469619985450667,-0.0315523736917333,0.0065868692736,-9.940573772178489,359.5012975351181,357.4003758919324,344.2842260457976,0.001471,0.001485,0.01191,-0.990332,0.007411,0.021876,0.136778,0.001471,0.001485,0.01191,2.484986875,0.0,0.0,0.036785375,0.0,0.0,-0.101684375,0.0,0.0,0.0,205.13309020800511
2023-09-08 16:01:29.625,0.1146797857856,-0.03366705769472,-0.1655316594009599,0.0895702500608,0.08938140006144,0.07204208756864,48.359266,-4.557299,50.70108188506752,50.78796453734016,0.58790261479808,0.58701113978752,0.57844491469696,-0.0501290717977599,-0.00191876504576,-9.62061729749248,-0.0253466442547199,0.00903372099584,0.0074336900991999,33.03770610010368,-0.04939704752384,0.00099427194112,-9.62015886134528,-0.02441426940672,0.0099231834521599,0.00709397760768,0.430243,0.040904,0.739119,-0.0245,-0.024282,-9.610911,358.8915941598307,356.78869581261847,344.61395125910826,0.0014719583331555,0.001485,0.0118898750037333,-0.990526541630578,0.0133315822350222,0.0264731241472,0.1340764588344888,0.0014719583331555,0.001485,0.0118898750037333,2.48786029321696,0.0,0.0,-0.0136592218921599,0.0,0.0,-0.08944507102048,0.0,0.0,0.0,205.46281542131575
2023-09-08 16:01:29.640,0.120941,-0.037723,-0.166258,0.089556,0.089367,0.072026,48.359266,-4.557299,50.701652,50.788002,0.587364,0.586475,0.57793,-0.0508796,-0.0013221,-9.6036268,-0.0266931999999999,0.0129019,0.0068244999999999,33.0376818,-0.0499774,0.0017112,-9.6028513,-0.0257252,0.0138015999999999,0.0064828,0.4228408434176,0.0436032615168,0.73370960192,-0.0413240717823999,-0.0151147108864,-9.5531712536448,358.86508519940486,356.7621009081567,344.6282872017737,0.001472,0.001485,0.011889,-0.990535,0.013589,0.026673,0.133959,0.001472,0.001485,0.011889,2.487985225,0.0,0.0,-0.0158524749999999,0.0,0.0,-0.088912925,0.0,0.0,0.0,205.4771513639812
2023-09-08 16:01:29.665,0.129747227456,-0.04608072860416,-0.16072638916096,0.0896491247616,0.08945999976192,0.07207899986432,48.359266,-4.557299,50.703843244390406,50.78787712531968,0.58807662317568,0.58718412318464,0.57858074833408,-0.0521304717977599,-0.00032766504576,-9.57530949749248,-0.0289374442547199,0.01934882099584,0.0058091900992,33.03764130010368,-0.05094464752384,0.0029060719411199,-9.57400556134528,-0.02791006940672,0.0202655834521599,0.00546417760768,0.410504,0.048102,0.724694,-0.069364,0.000164,-9.456939,358.821361469597,356.7980181079907,344.639137562242,0.0014744999936,0.0014868749951999,0.0118883750016,-0.9905512499584,0.0139227491456,0.0263130009215999,0.1338733752192,0.0014744999936,0.0014868749951999,0.0118883750016,2.48819344321696,0.0,0.0,-0.0195078718921599,0.0,0.0,-0.08802602102048,0.0,0.0,0.0,205.48800172444956
2023-09-08 16:01:29.680,0.135031,-0.0510954,-0.1574074,0.089705,0.0895158,0.0721108,48.359266,-4.557299,50.705158,50.7878022,0.5885042,0.5876096,0.5789712,-0.052881,0.000269,-9.558319,-0.030284,0.023217,0.0052,33.037617,-0.051525,0.003623,-9.556698,-0.029221,0.024144,0.004853,0.4159207106112,0.0478503739264,0.72574400448,-0.0692794371392,0.001473693088,-9.4572573763584,358.79512705261936,356.8195685750083,344.64564782296617,0.001476,0.001488,0.011888,-0.990561,0.014123,0.026097,0.133822,0.001476,0.001488,0.011888,2.488318375,0.0,0.0,-0.0217011249999999,0.0,0.0,-0.087493875,0.0,0.0,0.0,205.4945119851737
2023-09-08 16:01:29.745,0.157927227456,-0.07282552860416,-0.14302518916096,0.0899471247616,0.0897575997619199,0.07224859986432,48.359266,-4.557299,50.7108552443904,50.78747752531968,0.59035702317568,0.5894533231846399,0.5806631483340801,-0.0553355600832,-0.006811930528,-9.508596486457598,-0.0066898357311999,0.04633260224,-0.000641869248,33.0370246880832,-0.0605998035648,-0.0075261140224,-9.5149209161344,-0.0052189611328,0.0475902894143999,-0.00085480688,0.439393,0.04676,0.730294,-0.068913,0.007149,-9.458637,358.7620280295818,356.9927914508494,344.6418304954147,0.0014816874943999,0.0014936874944,0.0118912499968,-0.9905951249664,0.0142083124159999,0.0245605640127999,0.1338512499712,0.0014816874943999,0.0014936874944,0.0118912499968,2.48885974321696,0.0,0.0,-0.0312051718921599,0.0,0.0,-0.08518792102048,0.0,0.0,0.0,205.4906946576222
2023-09-08 16:01:29.760,0.163211,-0.0778402,-0.1397062,0.090003,0.0898134,0.0722804,48.359266,-4.557299,50.71217,50.7874026,0.5907846,0.5898788,0.5810536000000001,-0.055902,-0.008446,-9.497122,-0.001245,0.051667,-0.00199,33.036888,-0.062694,-0.010099,-9.50528,0.00032,0.053001,-0.002172,0.4337593509632,0.048140005888,0.73833778432,-0.0670241169408,0.0013409752191999,-9.4683096037696,358.7543897533856,357.0327661705765,344.6409495690461,0.001483,0.001495,0.011892,-0.990603,0.014228,0.024206,0.133858,0.001483,0.001495,0.011892,2.488984675,0.0,0.0,-0.0333984249999999,0.0,0.0,-0.084655775,0.0,0.0,0.0,205.4898137312536
2023-09-08 16:01:29.825,0.186107227456,-0.09957032860416,-0.12532398916096,0.0902451247616,0.09005519976192,0.07241819986432,48.359266,-4.557299,50.717867244390405,50.78707792531968,0.5926374231756799,0.59172252318464,0.58274554833408,-0.0616894318016,0.0058109234623999,-9.4539230425344,0.029353719872,0.0755114140224,-0.0085907435008,33.0378150615872,-0.0654410597952,0.0074241702464,-9.4511017408448,0.030520595264,0.0768917264768,-0.0090067432703999,0.409347,0.05412,0.773194,-0.058839,-0.023827,-9.510224,358.85769036115,357.31515530383416,344.6032418212817,0.001478937504,0.001490937504,0.011883875008,-0.9906338749696,0.013013313696,0.0218806272895999,0.134146437216,0.001478937504,0.001490937504,0.011883875008,2.48952604321696,0.0,0.0,-0.0429024718921599,0.0,0.0,-0.08234982102048,0.0,0.0,0.0,205.4521059834892
2023-09-08 16:01:29.840,0.191391,-0.104585,-0.122005,0.090301,0.090111,0.07245,48.359266,-4.557299,50.719182,50.787003,0.593065,0.592148,0.583136,-0.063025,0.009101,-9.443954,0.036415,0.081014,-0.010114,33.038029,-0.066075,0.011468,-9.438599,0.03749,0.082405,-0.010584,0.4171009080832,0.0550098787968,0.7589304391424,-0.0651919021056,-0.014153833728,-9.4417123326848,358.8815290881251,357.3803223691028,344.5945399876405,0.001478,0.00149,0.011882,-0.990641,0.012733,0.021344,0.134213,0.001478,0.00149,0.011882,2.489650975,0.0,0.0,-0.0450957249999999,0.0,0.0,-0.081817675,0.0,0.0,0.0,205.443404149848
2023-09-08 16:01:29.865,0.197232651712,-0.110874567232,-0.1154968916608,0.090635374144,0.0904437074816,0.0726264578816,48.3592662083328,-4.5572992083328,50.722355741875205,50.787003,0.594156663872,0.5932336222208,0.5840459976704,-0.0667731154048,0.0088778755711999,-9.4227590542592,0.0475530964864,0.089329603712,-0.0131258672896,33.0380908748416,-0.0662768744832,0.0083373830144,-9.4307296451456,0.0489055957759999,0.0903149797504,-0.0135477424128,0.430024,0.056493,0.735158,-0.07578,0.001968,-9.327527,358.96095515914385,357.5172231218101,344.5726602178513,0.0014804999936,0.0014918749952,0.0118813750016,-0.9906509999744,0.0118905021567999,0.0202508777984,0.1343804995712,0.0014804999936,0.0014918749952,0.0118813750016,2.48985919321696,0.0,0.0,-0.0487511218921599,0.0,0.0,-0.08093077102048,0.0,0.0,0.0,205.42152438005883
2023-09-08 16:01:29.880,0.2007376666666666,-0.1146483333333333,-0.111592,0.090836,0.0906433333333333,0.0727323333333333,48.35926633333333,-4.557299333333334,50.72426,50.787003,0.5948116666666666,0.593885,0.584592,-0.069022,0.008744,-9.410042,0.054236,0.094319,-0.014933,33.038128,-0.066398,0.006459,-9.426008,0.055755,0.095061,-0.015326,0.4284931184682667,0.0584990085589333,0.7368062570325333,-0.0780421346517333,-0.0016263903359999,-9.338861548360534,359.00861112708515,357.59936413418137,344.559532266358,0.001482,0.001493,0.011881,-0.990657,0.011385,0.019595,0.134481,0.001482,0.001493,0.011881,2.489984125,0.0,0.0,-0.0509443749999999,0.0,0.0,-0.080398625,0.0,0.0,0.0,205.40839642856557
2023-09-08 16:01:29.960,0.219431,-0.134775,-0.090766,0.091906,0.091708,0.073297,48.359267,-4.5573,50.734416,50.787003,0.598305,0.597359,0.587504,-0.0950333333333333,0.0091473333333333,-9.400823333333332,0.0778313333333333,0.110205,-0.024827,33.037276,-0.0942553333333333,0.0058936666666666,-9.39439,0.0786383333333333,0.1107023333333333,-0.0251286666666666,0.4203284518016,0.0691976752256,0.7455969236992,-0.0901068013184,-0.0207963903359999,-9.3993122150272,359.38030794737966,358.1176235584704,344.43986048154835,0.0014813333333333,0.001493,0.0118783333333333,-0.990645,0.007776,0.015636,0.135344,0.001488,0.001501,0.011885,2.490650425,0.0,0.0,-0.0626416749999999,0.0,0.0,-0.077560525,0.0,0.0,0.0,205.28872464375587
2023-09-08 16:01:29.980,0.2222655,-0.1379024999999999,-0.0838905,0.09122,0.091027,0.07295,48.359267,-4.5573,50.734175500000006,50.787003,0.597734,0.5967929999999999,0.5872475,-0.1015361666666666,0.0092481666666666,-9.398518666666668,0.0837301666666666,0.1141765,-0.0273005,33.037063,-0.1012196666666666,0.0057523333333333,-9.3864855,0.0843591666666666,0.1146126666666666,-0.0275793333333333,0.4182872851349333,0.0718723418922666,0.7477945903658667,-0.0931229679850666,-0.0255888903359999,-9.414424881693868,359.47323215245325,358.2471884145426,344.4099425353459,0.0014811666666666,0.001493,0.0118776666666666,-0.9906275,0.0067255,0.0145775,0.1356355,0.0014845,0.001497,0.011881,2.490817,0.0,0.0,-0.065566,0.0,0.0,-0.076851,0.0,0.0,0.0,205.25880669755344
2023-09-08 16:01:29.985,0.2229741159295999,-0.138684364992,-0.0821716470016,0.0910485021952,0.0908567521792,0.0728632511104,48.359267,-4.5573,50.734115375769605,50.787003,0.5975912518272,0.5966515018112,0.5871833758208,-0.1031618541909333,0.0092733746773333,-9.397942507374934,0.0852048561237333,0.1151693622912,-0.0279188670848,33.0370097506816,-0.1029607277141333,0.0057170004522666,-9.3845094002944,0.0857893566933333,0.1155902374869333,-0.0281919921578666,0.417777,0.072541,0.748344,-0.093877,-0.026787,-9.418203,359.49646290636423,358.2795792139531,344.4024631445328,0.0014811250005333,0.001493,0.0118775000021333,-0.990623125056,0.0064628783616,0.0143128783872,0.1357083740672,0.0014836250111999,0.0014960000128,0.0118800000128,2.49085473076704,0.0,0.0,-0.06520021718208,0.0,0.0,-0.07542984319104,0.0,0.0,0.0,205.25132730674036
2023-09-08 16:01:30.000,0.2251,-0.14103,-0.077015,0.090534,0.090346,0.072603,48.359267,-4.5573,50.733935,50.787003,0.597163,0.596227,0.586991,-0.108039,0.009349,-9.396214,0.089629,0.118148,-0.029774,33.03685,-0.108184,0.005611,-9.378581,0.09008,0.118523,-0.03003,0.4058226989952,0.0707533673728,0.747843372864,-0.1005306533888,-0.0576728817791999,-9.4097107137664,359.5661563575269,358.37675327061487,344.3800245891435,0.001481,0.001493,0.011877,-0.99061,0.005675,0.013519,0.135927,0.001481,0.001493,0.011877,2.490967925,0.0,0.0,-0.06410285,0.0,0.0,-0.0711663,0.0,0.0,0.0,205.228888751351
2023-09-08 16:01:30.025,0.2272874943999999,-0.1445368660223999,-0.0686831463296,0.0908658741504,0.0906766241535999,0.0727786245504,48.359267,-4.5573,50.7359799947648,50.787003,0.5982517472128001,0.5973101222272,0.587900372672,-0.1119127400832,0.0022183932544,-9.3865365247744,0.091303995712,0.119279247104,-0.0317496199424,33.0368524999936,-0.111093367552,-0.0017883560575999,-9.3807522444416,0.0911949971456,0.119532372416,-0.0319849949952,0.385899,0.067774,0.747009,-0.11162,-0.109149,-9.395557,359.6975065958032,358.5497144622382,344.3335076972349,0.0014828749952,0.0014954999936,0.0118763750016,-0.9905800000768,0.0043393784192,0.0121777534336,0.1363132490112,0.0014828749952,0.0014954999936,0.0118763750016,2.49115658076704,0.0,0.0,-0.06227391718208,0.0,0.0,-0.06406044319104,0.0,0.0,0.0,205.1823718594424
2023-09-08 16:01:30.040,0.2286,-0.146641,-0.063684,0.091065,0.090875,0.072884,48.359267,-4.5573,50.737207,50.787003,0.598905,0.59796,0.588446,-0.114237,-0.00206,-9.38073,0.092309,0.119958,-0.032935,33.036854,-0.112839,-0.006228,-9.382055,0.091864,0.120138,-0.033158,0.3874811317504,0.0641537345536,0.7559336630784,-0.1160116437375999,-0.0879790346751999,-9.3800773089536,359.7763172767809,358.6534918856631,344.305597371556,0.001484,0.001497,0.011876,-0.990562,0.003538,0.011373,0.136545,0.001484,0.001497,0.011876,2.491269775,0.0,0.0,-0.0611765499999999,0.0,0.0,-0.0597969,0.0,0.0,0.0,205.15446153376357
2023-09-08 16:01:30.065,0.2279331267072,-0.1468013745894399,-0.05332615151616,0.0911382498124799,0.09094824981248,0.07292674989056,48.359267,-4.5573,50.73887312073472,50.787003,0.59961712317696,0.5986686231859201,0.5890993733273601,-0.1123926297216,0.0001099944447999,-9.3743037664512,0.0903065051264,0.1192805017344,-0.0350031197056,33.0365702507264,-0.111139004352,-0.0003461400576,-9.3708500286848,0.09016087936,0.1191905024256,-0.0352473696512,0.390118,0.05812,0.770808,-0.123331,-0.052696,-9.354278,359.90358520121765,358.82448353990765,344.2549981658078,0.0014858749952,0.0014988749952,0.011876,-0.9905201251072,0.002238003328,0.0100461283968,0.1369712489088,0.0014858749952,0.0014988749952,0.011876,2.49145843076704,0.0,0.0,-0.05934761718208,0.0,0.0,-0.05269104319104,0.0,0.0,0.0,205.1038623280153
2023-09-08 16:01:30.080,0.2275329999999999,-0.1468976,-0.0471114,0.0911821999999999,0.0909922,0.0729524,48.359267,-4.5573,50.7398728,50.787003,0.6000444,0.5990938,0.5894914,-0.111286,0.001412,-9.370448,0.089105,0.118874,-0.036244,33.0364,-0.110119,0.003183,-9.364127,0.089139,0.118622,-0.036501,0.38916954595328,0.06072836112896,0.7711995016704001,-0.1237633018444799,-0.05042716531968,-9.35858519337728,359.9799464771704,358.927079232838,344.224638435104,0.001487,0.0015,0.011876,-0.990495,0.001458,0.00925,0.137227,0.001487,0.0015,0.011876,2.491571625,0.0,0.0,-0.0582502499999999,0.0,0.0,-0.0484275,0.0,0.0,0.0,205.07350259731152
2023-09-08 16:01:30.240,0.223265,-0.147924,0.019179,0.091651,0.091461,0.073226,48.359267,-4.5573,50.750536,50.787003,0.604602,0.603629,0.593673,-0.1247028,-0.0113784,-9.397412,0.0469522,0.1015228,-0.0467352,33.0357928,-0.1232438,-0.0093698,-9.398391,0.0462798,0.1012452,-0.046997,0.37905274595328,0.0885507611289599,0.7753755016704,-0.12837450184448,-0.02622636531968,-9.40452839337728,0.5789165562001838,359.934453628237,343.8400118672327,0.001488,0.001502,0.011874,-0.99006,-0.004921,0.001276,0.140551,0.001488,0.001502,0.011874,2.492779025,0.0,0.0,-0.04654505,0.0,0.0,-0.0029499,0.0,0.0,0.0,204.68887602944025
2023-09-08 16:01:30.265,0.2191511042816,-0.1446438521472,0.0290936621184,0.0919833428992,0.0917916241536,0.0733992808064,48.359267,-4.5573001562496,50.7491720972416,50.787003,0.6057410595839999,0.6047618095999999,0.5946123725952001,-0.12679916963328,-0.01337689488384,-9.4016251142144,0.04036584186112,0.09881168194048,-0.04837444580352,33.03569792524288,-0.12529454475008,-0.01133116997888,-9.4037447362944,0.03958306714368,0.09853008195072,-0.0486369958016,0.377472,0.092898,0.776028,-0.129095,-0.022445,-9.411707,0.6282982297506137,135.0757620263902,343.77046929287815,0.0014904999936,0.0015038749952,0.011874,-0.989967291904,-0.0053743321728,0.0001564195327999,0.1411668317568,0.001490083328,0.001504083328,0.0118754583295999,2.49296768076704,0.0,0.0,-0.04471611718208,0.0,0.0,0.0041559568089599,0.0,0.0,0.0,204.61933345508567
2023-09-08 16:01:30.280,0.2166827499999999,-0.14267575,0.0350425,0.09218275,0.09199,0.0735032499999999,48.359267,-4.55730025,50.74835375,50.787003,0.6064244999999999,0.6054415,0.595176,-0.128057,-0.014576,-9.404153,0.036414,0.097185,-0.049358,33.035641,-0.126525,-0.012508,-9.406957,0.035565,0.096901,-0.049621,0.3768468723328,0.092929875136,0.7753256220032001,-0.1260242993983999,-0.021920935264,-9.42766331808,0.6579274361487243,0.1596260417234473,343.7287434634183,0.001492,0.001505,0.011874,-0.9899116666666667,-0.0056463333333333,-0.0005153333333333,0.1415363333333333,0.0014913333333333,0.0015053333333333,0.0118763333333333,2.493080875,0.0,0.0,-0.04361875,0.0,0.0,0.0084194999999999,0.0,0.0,0.0,204.57760762562583
2023-09-08 16:01:30.345,0.2059866042815999,-0.1341473521472,0.0608206621184,0.0930468428992,0.0928496241536,0.0739537808064,48.359267,-4.5573006562496,50.7448075972416,50.787003,0.6093860595839999,0.6083868095999999,0.5976183725952,-0.1246014409024,-0.0122652522751999,-9.4522212651712,0.0185975175424,0.0903388817408,-0.051519247872,33.0364404992128,-0.1241801273088,-0.0132863742336,-9.4555013897024,0.0179272673664,0.0900743817216,-0.051786310368,0.374138,0.093068,0.772282,-0.112718,-0.01965,-9.496807,0.7225892406483871,0.5023010186291477,343.54406860492287,0.0014968749952,0.0015106874944,0.0118796874944,-0.9896706252373334,-0.0068249988394666,-0.0034262471338666,0.1431374984234666,0.0014967499946666,0.0015107499946666,0.0118801249962666,2.49357138076704,0.0,0.0,-0.03886351718208,0.0,0.0,0.02689475680896,0.0,0.0,0.0,204.3929327671304
2023-09-08 16:01:30.360,0.20351825,-0.13217925,0.0667695,0.09324625,0.0930479999999999,0.07405775,48.359267,-4.55730075,50.74398925,50.787003,0.6100695,0.6090665,0.598182,-0.123804,-0.011732,-9.463314,0.014486,0.088759,-0.052018,33.036625,-0.123639,-0.013466,-9.466704,0.013857,0.088499,-0.052286,0.3744518763392,0.0941806297472,0.7798184071552,-0.1164125157632,-0.019985626432,-9.511988939776,0.7375112738923957,0.5813802747192464,343.5014511060899,0.001498,0.001512,0.011881,-0.989615,-0.007097,-0.004098,0.143507,0.001498,0.001512,0.011881,2.493684575,0.0,0.0,-0.03776615,0.0,0.0,0.0311583,0.0,0.0,0.0,204.35031526829744
2023-09-08 16:01:30.385,0.1994043542816,-0.1288991021472,0.0766841621184,0.0935785928992,0.0933786241535999,0.0742310308063999,48.359267,-4.5573009062496,50.7426253472416,50.787003,0.611208559584,0.6101993095999999,0.5991213725952,-0.1217543177472,-0.0130560591104,-9.4822992638976,0.0098663243264,0.0868711923328,-0.0526901857792,33.03632812576,-0.1211940062592,-0.0139413112832,-9.4856417640192,0.009361699008,0.0866352547712,-0.0529303733503999,0.374975,0.096035,0.792379,-0.12257,-0.020545,-9.537292,0.7429185492412825,0.706069895678345,343.4286140328473,0.0015004999936,0.0015138749952,0.011881,-0.9895156252544,-0.0073038744703999,-0.0051629972736,0.1441426233728,0.0015004999936,0.0015138749952,0.011881,2.49387323076704,0.0,0.0,-0.03593721718208,0.0,0.0,0.03826415680896,0.0,0.0,0.0,204.2774781950548
2023-09-08 16:01:30.400,0.196936,-0.126931,0.082633,0.093778,0.093577,0.074335,48.359267,-4.557301,50.741807,50.787003,0.611892,0.610879,0.599685,-0.1205245,-0.0138505,-9.4936905,0.0070945,0.0857385,-0.0530935,33.03615,-0.119727,-0.0142265,-9.4970045,0.0066644999999999,0.085517,-0.053317,0.3748377494144,0.0983915100544,0.7893741121792,-0.1179064801024,-0.0204609996416,-9.5388133814912,0.7461629365988711,0.780884178983799,343.3849114905603,0.001502,0.001515,0.011881,-0.989456,-0.007428,-0.005802,0.144524,0.001502,0.001515,0.011881,2.493986425,0.0,0.0,-0.03483985,0.0,0.0,0.0425277,0.0,0.0,0.0,204.2337756527678
2023-09-08 16:01:30.425,0.1930053850624,-0.123818507968,0.0876267372159999,0.0922980037888,0.0921070037632,0.0734106273664,48.3592676249984,-4.557301,50.7551550908288,50.7876273734016,0.5959157908992,0.5949821656959999,0.5847325382784,-0.1184748177472,-0.0151745591104,-9.5126757638976,0.0024748243263999,0.0838506923328,-0.0537656857792,33.03585312576,-0.1172820062592,-0.0147018112832,-9.5159422640192,0.002169199008,0.0836532547712,-0.0539613733504,0.374609,0.102319,0.784366,-0.110134,-0.020321,-9.541349,0.7425819595466282,0.9003097636761005,343.3164073995509,0.001495750016,0.001508750016,0.011874750016,-0.9893610002432,-0.0075517496832,-0.00683324736,0.145120873472,0.001495750016,0.001508750016,0.011874750016,2.49417508076704,0.0,0.0,-0.03301091718208,0.0,0.0,0.04963355680896,0.0,0.0,0.0,204.1652715617584
2023-09-08 16:01:30.440,0.190647,-0.121951,0.090623,0.09141,0.091225,0.072856,48.359268,-4.557301,50.763164,50.788002,0.58633,0.585444,0.575761,-0.117245,-0.015969,-9.524067,-0.000297,0.082718,-0.054169,33.035675,-0.115815,-0.014987,-9.527305,-0.000528,0.082535,-0.054348,0.372038364032,0.1012926206208,0.7800444815616,-0.1100192495104,-0.0207042516352,-9.5467538980608,0.7404333586475629,0.9719656036599286,343.2753046643518,0.001492,0.001505,0.011871,-0.989304,-0.007626,-0.007452,0.145479,0.001492,0.001505,0.011871,2.494288275,0.0,0.0,-0.03191355,0.0,0.0,0.0538971,0.0,0.0,0.0,204.1241688265593
2023-09-08 16:01:30.465,0.1840838918016,-0.11731819936,0.0950668948736,0.091413124992,0.091228124992,0.0728627187328,48.359268,-4.557301,50.764344153228805,50.7878459066496,0.5869435921792,0.5860547796864,0.5763450610048,-0.1142162577536,-0.0163427490432,-9.5486019371904,-0.0016601215104,0.0807280050944,-0.0545514990208,33.035121876416,-0.1132512565632,-0.0162813716864,-9.5499180671104,-0.0017417468928,0.0805200051584,-0.0545467494912,0.367754,0.099582,0.772842,-0.109828,-0.021343,-9.555762,0.7339875999535256,1.0877385917589422,343.1999967169431,0.0014944999936,0.0015074999936,0.011871,-0.9891983752704,-0.007722874752,-0.0084544974336,0.1461333733248,0.0014944999936,0.0015074999936,0.011871,2.49447693076704,0.0,0.0,-0.0300846171820799,0.0,0.0,0.06100295680896,0.0,0.0,0.0,204.0488608791506
2023-09-08 16:01:30.480,0.180146,-0.1145385,0.09773325,0.091415,0.09123,0.07286675,48.359268,-4.557301,50.76505225,50.78775225,0.58731175,0.58642125,0.5766955,-0.112399,-0.016567,-9.563323,-0.002478,0.079534,-0.054781,33.03479,-0.111713,-0.017058,-9.563486,-0.00247,0.079311,-0.054666,0.368451502976,0.0977879923456,0.7750449468992,-0.1077109284672,-0.0221076282624,-9.572070819584,0.7301201183352081,1.1572028588257235,343.15481164003575,0.001496,0.001509,0.011871,-0.989135,-0.007781,-0.009056,0.146526,0.001496,0.001509,0.011871,2.494590125,0.0,0.0,-0.02898725,0.0,0.0,0.0652665,0.0,0.0,0.0,204.0036758022433
2023-09-08 16:01:30.545,0.1630818918016,-0.10249319936,0.1092873948736,0.091423124992,0.091238124992,0.0728842187328,48.359268,-4.557301,50.7681206532288,50.7873464066496,0.5889070921792,0.5880092796864,0.5782140610048,-0.1070584427584,-0.0189500601536,-9.6219090673152,-0.0011024388544,0.0752066292607999,-0.0553026244864,33.034926499865605,-0.1054778811392,-0.0167159378367999,-9.6228951290048,-0.0010172514303999,0.0749243168192,-0.0554102492672,0.371474,0.090014,0.784591,-0.098537,-0.025421,-9.642742,0.7160611802798458,1.443874847385064,342.95556576295974,0.0015008749952,0.0015138749952,0.0118766874944,-0.9888481877824,-0.0080474997376,-0.01153412256,0.1482558107968,0.0015008749952,0.0015138749952,0.0118766874944,2.49508063076704,0.0,0.0,-0.02423201718208,0.0,0.0,0.08374175680896,0.0,0.0,0.0,203.80442992516728
2023-09-08 16:01:30.560,0.159144,-0.0997135,0.11195375,0.0914249999999999,0.09124,0.07288825,48.359268,-4.557301,50.76882875,50.78725275,0.58927525,0.58837575,0.5785644999999999,-0.105826,-0.0195,-9.635429,-0.000785,0.074208,-0.055423,33.034958,-0.104039,-0.016637,-9.636605,-0.000682,0.073912,-0.055582,0.3764862713856,0.0897563739008,0.7902111489792001,-0.102780143104,-0.020242227904,-9.6636978394112,0.7128167929222572,1.5100302690672849,342.90958570371976,0.001502,0.001515,0.011878,-0.988782,-0.008109,-0.012106,0.148655,0.001502,0.001515,0.011878,2.495193825,0.0,0.0,-0.02313465,0.0,0.0,0.0880053,0.0,0.0,0.0,203.75844986592728
2023-09-08 16:01:30.585,0.1525808918016,-0.0950806993599999,0.1163976448736,0.091428124992,0.091243124992,0.0728949687328,48.359268,-4.557301,50.7700089032288,50.7870966566496,0.5898888421792,0.5889865296864,0.5791485610047999,-0.1049903771392,-0.0129081418751999,-9.6637583024768,0.0015762439552,0.0721723802112,-0.0555129997696,33.0345192511232,-0.1037208758144,-0.0116226378367999,-9.6666092981888,0.001811743616,0.07194325504,-0.0555857499904,0.38484,0.089327,0.799578,-0.109852,-0.011611,-9.698624,0.7141775642021095,1.6115867782688942,342.84104580293985,0.0014963750144,0.0015093750144,0.0118730000128,-0.9886795002624,-0.0082602496128,-0.0129759977728,0.1492499984768,0.0014963750144,0.0015093750144,0.0118730000128,2.49538248076704,0.0,0.0,-0.02130571718208,0.0,0.0,0.0951111568089599,0.0,0.0,0.0,203.68990996514736
2023-09-08 16:01:30.600,0.148643,-0.092301,0.119064,0.09143,0.091245,0.072899,48.359268,-4.557301,50.770717,50.787003,0.590257,0.589353,0.579499,-0.104489,-0.008953,-9.680756,0.002993,0.070951,-0.055567,33.034256,-0.10353,-0.008614,-9.684612,0.003308,0.070762,-0.055588,0.3845763738752,0.0917048851456,0.7935603493248,-0.1070473630336,-0.0100393682944,-9.7123381835136,0.7149940325437544,1.6725210997663862,342.7999215817317,0.001493,0.001506,0.01187,-0.988618,-0.008351,-0.013498,0.149607,0.001493,0.001506,0.01187,2.495495675,0.0,0.0,-0.02020835,0.0,0.0,0.0993747,0.0,0.0,0.0,203.64878574393924
2023-09-08 16:01:30.625,0.1396292730752,-0.0867110143104,0.1217914930176,0.0917681241344,0.0915812491392,0.0730733745536,48.359268,-4.557301,50.7676701328,50.787003,0.5913588721792,0.5904486221952,0.5804096226688,-0.103929626432,-0.0093629989503999,-9.7061971848704,0.0052811191424,0.0679847575936,-0.0561807484288,33.034206000128,-0.103105001088,-0.0102371208448,-9.710071309824,0.0056523689983999,0.067508883328,-0.056106748672,0.384137,0.095668,0.783531,-0.102373,-0.00742,-9.735195,0.721224932614657,1.7685987140780637,342.7238974389126,0.0014954999936,0.0015084999936,0.01187,-0.9885048752896,-0.0085397495168,-0.0143129979135999,0.1502669983104,0.0014954999936,0.0015084999936,0.01187,2.49568433076704,0.0,0.0,-0.01837941718208,0.0,0.0,0.1064805568089599,0.0,0.0,0.0,203.5727616011201
2023-09-08 16:01:30.640,0.134221,-0.083357,0.123428,0.091971,0.091783,0.073178,48.359268,-4.557301,50.765842,50.787003,0.59202,0.591106,0.580956,-0.103594,-0.009609,-9.721462,0.006654,0.066205,-0.056549,33.034176,-0.10285,-0.011211,-9.725347,0.007059,0.065557,-0.056418,0.3801747330944,0.0993951409024,0.7748088377856,-0.1010833694976,-0.0046723632768,-9.759414103334398,0.7249634981790306,1.826245676199986,342.67828264182543,0.001497,0.00151,0.01187,-0.988437,-0.008653,-0.014802,0.150663,0.001497,0.00151,0.01187,2.495797525,0.0,0.0,-0.01728205,0.0,0.0,0.1107441,0.0,0.0,0.0,203.52714680403292
2023-09-08 16:01:30.665,0.1243101920384,-0.0772099324032,0.124348830976,0.0923122491264,0.0921223741312,0.0733521662208,48.359268,-4.557301,50.7625374251264,50.787003,0.593148122112,0.592227872128,0.5818814142976,-0.1006183826176,-0.01115587104,-9.7511075491072,0.0097646170368,0.062473759552,-0.056964623936,33.0342141249024,-0.0994200087808,-0.009404754624,-9.7559162967424,0.0101633670528,0.0620938838656,-0.0570004985088,0.373571,0.105607,0.760272,-0.098934,-9.3e-05,-9.799779,0.7379982546491949,1.9144093312262067,342.6003247713981,0.0014988749952,0.0015118749952,0.01187,-0.9883195003008,-0.0088923743872,-0.0155388731135999,0.1513404982656,0.0014988749952,0.0015118749952,0.01187,2.49598618076704,0.0,0.0,-0.01545311718208,0.0,0.0,0.1178499568089599,0.0,0.0,0.0,203.44918893360563
2023-09-08 16:01:30.680,0.1183636666666666,-0.0735216666666666,0.1249013333333333,0.092517,0.092326,0.0734566666666666,48.359268,-4.557301,50.76055466666666,50.787003,0.593825,0.592901,0.5824366666666667,-0.098833,-0.012084,-9.768895,0.011631,0.060235,-0.057214,33.034237,-0.097362,-0.008321,-9.774258,0.012026,0.060016,-0.05735,0.3697251085909333,0.1069313806506666,0.7636265143125333,-0.0968281160149333,0.0007637536554666,-9.816231945198933,0.7458191619217927,1.9673078853611945,342.5535497298255,0.0015,0.001513,0.01187,-0.988249,-0.009036,-0.015981,0.151747,0.0015,0.001513,0.01187,2.496099375,0.0,0.0,-0.01435575,0.0,0.0,0.1221134999999999,0.0,0.0,0.0,203.402413892033
2023-09-08 16:01:30.760,0.086649,-0.053851,0.127848,0.093609,0.093412,0.074014,48.359268,-4.557301,50.74998,50.787003,0.597435,0.596491,0.585398,-0.0935143333333333,-0.0111873333333333,-9.856586333333334,0.021157,0.0430263333333333,-0.059326,33.03267033333333,-0.0922073333333333,-0.010349,-9.861784,0.0215306666666666,0.042404,-0.0594146666666666,0.3492137752576,0.113994713984,0.7815171809792,-0.0855967826816,0.0053330869888,-9.9039806118656,0.8206474499658781,2.193568918658357,342.2899318482858,0.001507,0.00152,0.011877,-0.987854,-0.010021,-0.017811,0.154038,0.001507,0.00152,0.011877,2.496703075,0.0,0.0,-0.00850315,0.0,0.0,0.1448523,0.0,0.0,0.0,203.1387960104933
2023-09-08 16:01:30.780,0.080594,-0.050051,0.1242494999999999,0.092834,0.0926424999999999,0.073629,48.359268,-4.557301,50.759456,50.7875025,0.59674,0.5958025,0.5850869999999999,-0.0921846666666666,-0.0109631666666666,-9.878509166666667,0.0235384999999999,0.0387241666666666,-0.059854,33.03227866666666,-0.0909186666666666,-0.010856,-9.8836655,0.0239068333333333,0.038001,-0.0599308333333333,0.3440859419242666,0.1157605473173333,0.7859898476458667,-0.0827889493482666,0.0064754203221333,-9.925917778532266,0.8465451423057913,2.232444105057983,342.2277086317346,0.0015025,0.001515,0.0118725,-0.9877605,-0.0103065,-0.0181055,0.15458,0.0015025,0.001515,0.0118725,2.496854,0.0,0.0,-0.00704,0.0,0.0,0.150537,0.0,0.0,0.0,203.0765727939421
2023-09-08 16:01:30.785,0.079080269376,-0.04910101216,0.1233498865151999,0.09264025248,0.0924501274624,0.073532751232,48.359268,-4.557301,50.7618249696768,50.7876273734016,0.5965662522240001,0.5956303772032,0.5850092509952,-0.0918522542549333,-0.0109071257173333,-9.883989804846934,0.0241338673791999,0.0376486387669333,-0.0599859983103999,33.03218075125333,-0.0905965041237333,-0.0109827483776,-9.8891358049792,0.0245008673962666,0.0369002640896,-0.0600598733482666,0.342804,0.116202,0.787108,-0.082087,0.006761,-9.931402,0.8530194825181541,2.2421627772572927,342.212153026711,0.0015013750144,0.001513750016,0.0118713750144,-0.9877371252992,-0.0103778740864,-0.0181791240576,0.1547154982656,0.0015013750144,0.001513750016,0.0118713750144,2.49734159375872,0.0,0.0,-0.00624281020416,0.0,0.0,0.15026645346304,0.0,0.0,0.0,203.06101718891853
2023-09-08 16:01:30.800,0.074539,-0.046251,0.120651,0.092059,0.091873,0.073244,48.359268,-4.557301,50.768932,50.788002,0.596045,0.595114,0.584776,-0.090855,-0.010739,-9.900432,0.02592,0.034422,-0.060382,33.031887,-0.08963,-0.011363,-9.905547,0.026283,0.033598,-0.060447,0.3442642562304,0.1126027346432,0.7930206502272,-0.0803229924735999,-0.0013791597311999,-9.9421697959424,0.8724428346457045,2.271319291457609,342.1654854151833,0.001498,0.00151,0.011868,-0.987667,-0.010592,-0.0184,0.155122,0.001498,0.00151,0.011868,2.4988044,0.0,0.0,-0.0038512,0.0,0.0,0.1494548,0.0,0.0,0.0,203.0143495773908
2023-09-08 16:01:30.825,0.06377340256,-0.0394785173376,0.1192303786368,0.09240274912,0.0922154991232,0.0734183745536,48.359268,-4.557301,50.7655513836544,50.788002,0.5971674971263999,0.5962302471424,0.5856997476352,-0.0880293822336,-0.0156558624128,-9.929288176128,0.0287906176511999,0.0276432673536,-0.0606613742848,33.0321851242368,-0.0869962567424,-0.0156079891328,-9.9342819264384,0.0290248679808,0.0268486422784,-0.0607238742912,0.346698,0.106604,0.802875,-0.077383,-0.014946,-9.960116,0.9114038649741074,2.306520295881157,342.07957777570005,0.0014998749951999,0.0015124999936,0.011868,-0.9875401253248,-0.0109894989824,-0.0186418743808,0.1558701230848,0.0014998749951999,0.0015124999936,0.011868,2.50124239375872,0.0,0.0,0.0001347897958399,0.0,0.0,0.14810205346304,0.0,0.0,0.0,202.9284419379076
2023-09-08 16:01:30.840,0.057314,-0.035415,0.118378,0.092609,0.092421,0.073523,48.359268,-4.557301,50.763523,50.788002,0.597841,0.5969,0.586254,-0.086334,-0.018606,-9.946602,0.030513,0.023576,-0.060829,33.032364,-0.085416,-0.018155,-9.951523,0.03067,0.022799,-0.06089,0.3489412595712,0.1088532595968,0.7996672363136,-0.0799416359168,-0.0178912625664,-9.9759601926016,0.934780642755938,2.327641042718969,342.02803284013146,0.001501,0.001514,0.011868,-0.987464,-0.011228,-0.018787,0.156319,0.001501,0.001514,0.011868,2.5027052,0.0,0.0,0.0025263999999999,0.0,0.0,0.1472904,0.0,0.0,0.0,202.87689700233895
2023-09-08 16:01:30.865,0.0465165276416,-0.0283112681856,0.1162223805184,0.0929546241152,0.09276474912,0.0736967495552,48.359268,-4.557301,50.760313633216,50.788002,0.5989766220928,0.5980287471104,0.5871846226176001,-0.0834690073344,-0.0188584993536,-9.974345678976,0.0312586230912,0.0164791431679999,-0.0609739996288,33.032120875622404,-0.0835947546624,-0.0188318732672,-9.9760873121152,0.0313868731647999,0.015592768448,-0.0609531248384,0.35268,0.112602,0.794321,-0.084206,-0.0228,-10.002367,0.9752814932168056,2.346405362472722,341.9429846351407,0.0015028749951999,0.0015158749951999,0.011868,-0.9873402503168,-0.0116167490048,-0.0188844997504,0.157059623104,0.0015028749951999,0.0015158749951999,0.011868,2.50514319375872,0.0,0.0,0.0065123897958399,0.0,0.0,0.14593765346304,0.0,0.0,0.0,202.79184879734825
2023-09-08 16:01:30.880,0.040038,-0.024049,0.114929,0.093162,0.092971,0.073801,48.359268,-4.557301,50.758388,50.788002,0.599658,0.598706,0.587743,-0.08175,-0.01901,-9.990992,0.031706,0.012221,-0.061061,33.031975,-0.082502,-0.019238,-9.990826,0.031817,0.011269,-0.060991,0.3551917607168,0.1113056194688,0.7971271369728,-0.0791757285376,-0.0258851381632,-10.0171015628672,0.999582169385234,2.357664031183824,341.8919553637879,0.001504,0.001517,0.011868,-0.987266,-0.01185,-0.018943,0.157504,0.001504,0.001517,0.011868,2.506606,0.0,0.0,0.008904,0.0,0.0,0.145126,0.0,0.0,0.0,202.7408195259954
2023-09-08 16:01:30.905,0.0294824020223999,-0.016789643584,0.1125683810432,0.093508874112,0.0933172491136,0.0739753745536,48.359268,-4.557301,50.7551523832832,50.788002,0.6008067470592,0.5998478720768,0.5886823725952001,-0.0749487674112,-0.0203624965376,-10.0039188419072,0.0321791237888,0.0042203954815999,-0.0607728757376,33.0322443743104,-0.076186391168,-0.0225511165184,-10.0054703375104,0.0320613743744,0.0032102706304,-0.0606397508992,0.359378,0.109145,0.801804,-0.070792,-0.031027,-10.041659,1.0406559761744605,2.358022128889049,341.80576124614043,0.0015064999936,0.0015188749952,0.0118717499903999,-0.9871422503168,-0.0122187490559999,-0.01888050016,0.1582533730816,0.0015064999936,0.0015188749952,0.0118717499903999,2.506606,0.0,0.0,0.01269924028416,0.0,0.0,0.1420410078976,0.0,0.0,0.0,202.65462540834795
2023-09-08 16:01:30.920,0.023149,-0.012434,0.111152,0.093717,0.093525,0.07408,48.359268,-4.557301,50.753211,50.788002,0.601496,0.600533,0.589246,-0.070868,-0.021174,-10.011675,0.032463,-0.00058,-0.0606,33.032406,-0.072397,-0.024539,-10.014257,0.032208,-0.001625,-0.060429,0.3661306538111999,0.1100566288896,0.7921612088576,-0.0679206127488,-0.0303834972544,-10.0444182617728,1.0653004284867396,2.3582369889789554,341.7540444225,0.001508,0.00152,0.011874,-0.987068,-0.01244,-0.018843,0.158703,0.001508,0.00152,0.011874,2.506606,0.0,0.0,0.0149764,0.0,0.0,0.14019,0.0,0.0,0.0,202.6029085847075
2023-09-08 16:01:30.945,0.0128727763072,-0.0047452696832,0.1082545074176,0.0940663741056,0.0938724991103999,0.0742524995584,48.359268,-4.557301,50.75019538272,50.788002,0.6026578720256,0.6016886220416,0.5901909975808001,-0.0713292488192,-0.0221089976063999,-10.0273512098688,0.0312392531328,-0.0089381036032,-0.0594318779904,33.0322078755072,-0.070275130432,-0.0229290041216,-10.0293907112576,0.0309998780928,-0.0099131037824,-0.0593296278144,0.377385,0.111576,0.77609,-0.063135,-0.029311,-10.049017,1.1037243122573062,2.3396875278483367,341.6717177600689,0.0015098749952,0.0015224999936,0.011874,-0.9869530002944,-0.0127581241856,-0.018621125568,0.1594173731712,0.0015098749952,0.0015224999936,0.011874,2.506606,0.0,0.0,0.01877164028416,0.0,0.0,0.1371050078976,0.0,0.0,0.0,202.5205819222764
2023-09-08 16:01:30.960,0.006707,-0.000132,0.106516,0.094276,0.094081,0.074356,48.359268,-4.557301,50.748386,50.788002,0.603355,0.602382,0.590758,-0.071606,-0.02267,-10.036757,0.030505,-0.013953,-0.058731,33.032089,-0.069002,-0.021963,-10.038471,0.030275,-0.014886,-0.05867,0.373814984768,0.1117368756863999,0.776393751296,-0.0694320268672,-0.0285208716288,-10.0542081471488,1.1267787999042769,2.3285577751911783,341.6223214253993,0.001511,0.001524,0.011874,-0.986884,-0.012949,-0.018488,0.159846,0.001511,0.001524,0.011874,2.506606,0.0,0.0,0.0210488,0.0,0.0,0.1352539999999999,0.0,0.0,0.0,202.47118558760684
2023-09-08 16:01:30.980,0.000229,0.0046585,0.101725,0.0935635,0.093374,0.074004,48.3592685,-4.5573015,50.755087,50.788002,0.6027285,0.601761,0.5905009999999999,-0.070437,-0.0250444999999999,-10.0478665,0.0278025,-0.0205419999999999,-0.057922,33.0322075,-0.069614,-0.0258835,-10.049906,0.0274729999999999,-0.021494,-0.057756,0.369054984768,0.1119513756864,0.7767987512960001,-0.0778280268672,-0.0274673716288,-10.0611296471488,1.1507284357407452,2.2974748148053314,341.56339271617014,0.001507,0.0015195,0.0118699999999999,-0.9868045,-0.0131215,-0.01818,0.160355,0.001507,0.0015195,0.0118699999999999,2.506606,0.0,0.0,0.024085,0.0,0.0,0.132786,0.0,0.0,0.0,202.4122568783777
2023-09-08 16:01:30.985,-0.0013904792704,0.0058561096704,0.1005272653312,0.09338537728,0.0931972522624,0.0739160011264,48.3592686249984,-4.5573016249984,50.7567622285568,50.788002,0.6025718770048,0.6016057519872,0.5904367508224,-0.0701447537408,-0.0256381174015999,-10.0506438394496,0.027126883648,-0.0221892289151999,-0.0577197525888,33.0322371246208,-0.0697669980416,-0.0268636124544,-10.052764713408,0.0267725089664,-0.0231459788544,-0.0575275029247999,0.367865,0.112005,0.7769,-0.079927,-0.027204,-10.06286,1.1567157680610278,2.289704174174343,341.5486607274347,0.0015060000128,0.0015183750144,0.0118690000128,-0.9867846252544,-0.013164624448,-0.0181030009856,0.1604822483712,0.0015060000128,0.0015183750144,0.0118690000128,2.5067529064529066,0.0,0.0,0.0244146374472533,0.0,0.0,0.13126661944832,0.0,0.0,0.0,202.39752488964223
2023-09-08 16:01:31.000,-0.006249,0.009449,0.096934,0.092851,0.092667,0.073652,48.359269,-4.557302,50.761788,50.788002,0.602102,0.60114,0.590244,-0.069268,-0.027419,-10.058976,0.0251,-0.027131,-0.057113,33.032326,-0.070226,-0.029804,-10.061341,0.024671,-0.028102,-0.056842,0.365466864768,0.1179469003519999,0.7771238759552,-0.0781716175104,-0.020159594944,-10.0778364388992,1.1746780715772138,2.2663918544194845,341.5044640069409,0.001503,0.001515,0.011866,-0.986725,-0.013294,-0.017872,0.160864,0.001503,0.001515,0.011866,2.5071936333333333,0.0,0.0,0.0254035666666666,0.0,0.0,0.1267084,0.0,0.0,0.0,202.35332816914843
2023-09-08 16:01:31.025,-0.0158496004224,0.0175264793216,0.0932615094016,0.0932003741056,0.0930157491072,0.0738263745536,48.359269,-4.557302,50.759109881856,50.788002,0.6032469970688,0.6022787470848,0.5911821225984,-0.0677386289152,-0.0299152436096,-10.0769153290752,0.0194962643456,-0.035430978752,-0.0553273795712,33.032647874176,-0.0686610040064,-0.0319958693888,-10.0780597072,0.0188978897792,-0.0364276036864,-0.0551957542144,0.36147,0.12785,0.777497,-0.075246,-0.008419,-10.102797,1.192224859133204,2.2098482267645685,341.4284040543513,0.0015048749952,0.0015168749952,0.011866,-0.9866262502528,-0.0133771247872,-0.0173513763327999,0.1615183733248,0.0015048749952,0.0015168749952,0.011866,2.507928173119573,0.0,0.0,0.0270517707805866,0.0,0.0,0.1191114194483199,0.0,0.0,0.0,202.2772682165588
2023-09-08 16:01:31.040,-0.02161,0.022373,0.091058,0.09341,0.093225,0.073931,48.359269,-4.557302,50.757503,50.788002,0.603934,0.602962,0.591745,-0.066821,-0.031413,-10.087679,0.016134,-0.040411,-0.054256,33.032841,-0.067722,-0.033311,-10.088091,0.015434,-0.041423,-0.054208,0.3565863541632,0.1269192460288,0.7748854888576,-0.0154482448639999,-0.0781640475776,-10.1201561990656,1.2027530035386242,2.175921818568327,341.38276777125515,0.001506,0.001518,0.011866,-0.986567,-0.013427,-0.017039,0.161911,0.001506,0.001518,0.011866,2.5083689,0.0,0.0,0.0280407,0.0,0.0,0.1145532,0.0,0.0,0.0,202.2316319334627
2023-09-08 16:01:31.065,-0.0370972817810285,0.0309402994962285,0.0842394460269714,0.0935783924260571,0.0933933031405714,0.0740146605001142,48.35926891071451,-4.557301910714514,50.756419967058285,50.78791280379977,0.6048122120374857,0.6038355691922286,0.5925080337609142,-0.0378110742656,-0.0487373306496,-10.1047970811776,0.0068046488831999,-0.048685978816,-0.0522703800832,33.0328310000256,-0.0285514752768,-0.0309591310208,-10.1082653233536,0.0055046504192,-0.0496623539072,-0.052042380544,0.348447,0.125368,0.770533,0.084214,-0.194405,-10.149088,1.1978470649770512,2.100399012536524,341.3097158393894,0.0015078749951999,0.0015204999936,0.0118666249984,-0.9864770002304,-0.0132882503552,-0.0163871266688,0.1625341234048,0.0015078749951999,0.0015204999936,0.0118666249984,2.50910343978624,0.0,0.0,0.02968890411392,0.0,0.0,0.1069562194483199,0.0,0.0,0.0,202.15858000159693
2023-09-08 16:01:31.080,-0.0463897142857142,0.0360807142857142,0.0801482857142857,0.0936794285714285,0.0934942857142857,0.0740648571428571,48.35926885714286,-4.557301857142857,50.755770142857145,50.78785928571428,0.6053391428571429,0.6043597142857143,0.5929658571428571,-0.020405,-0.059132,-10.115068,0.001207,-0.053651,-0.051079,33.032825,-0.005049,-0.029548,-10.12037,-0.000453,-0.054606,-0.050743,0.3503289455296,0.1251519990784,0.7585288237824,-0.0243706507925333,-0.1532089492309333,-10.1484188096448,1.1949034817453317,2.0550850195752366,341.26588438104847,0.001509,0.001522,0.011867,-0.986423,-0.013205,-0.015996,0.162908,0.001509,0.001522,0.011867,2.5095441666666667,0.0,0.0,0.0306778333333333,0.0,0.0,0.1023979999999999,0.0,0.0,0.0,202.114748543256
2023-09-08 16:01:31.305,-0.1857755674953143,0.1131865852105142,0.0187811603126857,0.0951949638546285,0.0950090174262857,0.0748178033572571,48.35926805357165,-4.557301053571657,50.74602282420114,50.787056518085485,0.6132430691803429,0.6122218549065143,0.5998331766180571,-1.2383625999872,0.0199040489472,-10.3173782995968,-0.1016043100416,-0.1334383880192,0.0824970334336,33.0330708927872,-1.2674473016319998,-0.0032133646335999,-10.3566094863744,-0.1014160962816,-0.1337280310656,0.0838334795775999,0.378558,0.121912,0.578467,-1.653133,0.464729,-10.138381,0.3750011101298646,0.8055181386206631,341.36702930805006,0.0015164999978666,0.0015294999978666,0.0118829374954666,-0.9867689374016,-0.0043681275135999,-0.0064063152277333,0.1619095627839999,0.0015164999978666,0.0015294999978666,0.0118829374954666,2.51615503978624,0.0,0.0,0.04551170411392,0.0,0.0,0.0340250194483199,0.0,0.0,0.0,202.2158934702576
2023-09-08 16:01:31.320,-0.195068,0.118327,0.01469,0.095296,0.09511,0.074868,48.359268,-4.557301,50.745373,50.787003,0.61377,0.612746,0.600291,-1.3195601428571428,0.0251731428571428,-10.330865714285714,-0.1084584285714285,-0.1387575714285714,0.0914021428571428,33.03308728571428,-1.3516075714285714,-0.0014577142857142,-10.372358857142858,-0.108147,-0.1390028571428571,0.0928052857142857,0.3711277182976,0.1197996159872,0.6002590929792,-1.6205573610112,0.5293740258176,-9.9195608163712,0.3203407032576432,0.7222133007624026,341.3737723338716,0.001517,0.00153,0.011884,-0.986792,-0.003779,-0.005767,0.161843,0.001517,0.00153,0.011884,2.5165957666666667,0.0,0.0,0.0465006333333333,0.0,0.0,0.0294667999999999,0.0,0.0,0.0,202.22263649607916
2023-09-08 16:01:31.345,-0.2320644677888,0.1419385020544,0.0046234632704,0.094517876992,0.0943431269632,0.07442268864,48.3592683124992,-4.557301,50.7432851928448,50.7873151867008,0.6062768941824,0.6052913315840001,0.5941253907840001,-1.454888457130057,0.0339549060900571,-10.353344585311088,-0.1198818814701714,-0.1476228165906285,0.1062438905764571,33.03311460707291,-1.4918737302034284,0.0014683496521142,-10.398607629231543,-0.1193650962816,-0.1477941739227428,0.1077581938633142,0.358744,0.116279,0.636579,-1.566265,0.637115,-9.554863,0.1398236500540774,0.5036304614934947,341.53788851217587,0.0015194999936,0.0015324999936,0.0118864999936,-0.987035749376,-0.0019108797824,-0.0041407541632,0.16042112864,0.0015194999936,0.0015324999936,0.0118864999936,2.517330306452907,0.0,0.0,0.0481488374472533,0.0,0.0,0.0218698194483199,0.0,0.0,0.0,202.3867526743834
2023-09-08 16:01:31.360,-0.2542625,0.1561055,-0.0014164999999999,0.094051,0.093883,0.0741555,48.3592685,-4.557301,50.7420325,50.7875025,0.601781,0.6008185,0.590426,-1.536086,0.039224,-10.366832,-0.126736,-0.152942,0.115149,33.033131,-1.576034,0.003224,-10.414357,-0.126096,-0.153069,0.11673,0.351360218496,0.1131432366207999,0.631148976832,-1.7688622394112,0.4135442961023999,-9.5817123645568,0.0315126787321952,0.3724798626145482,341.63635889138004,0.001521,0.001534,0.011888,-0.987182,-0.00079,-0.003165,0.159568,0.001521,0.001534,0.011888,2.517771033333333,0.0,0.0,0.0491377666666666,0.0,0.0,0.0173115999999999,0.0,0.0,0.0,202.4852230535876
2023-09-08 16:01:31.385,-0.2912589677888,0.1797170020544,-0.0114830367295999,0.093272876992,0.0931161269632,0.07371018864,48.3592688124992,-4.557301,50.7399446928448,50.7878146867008,0.5942878941824,0.5933638315840001,0.584260390784,-1.7099768048384,0.0434783641088,-10.3762332259328,-0.1317691121151999,-0.161716977536,0.1223477315712,33.033152249945594,-1.7336485965056,0.0370126635008,-10.3723027326592,-0.1337747303424,-0.161715852864,0.1231349836032,0.339054,0.107917,0.622099,-2.106522,0.040929,-9.626461,224.8316553057749,225.13179935126163,341.82009882393066,0.0015122500224,0.0015252500224,0.0118805000192,-0.9874369993472,0.0012612447487999,-0.0013700045952,0.1579842540544,0.0015122500224,0.0015252500224,0.0118805000192,2.5185055731195733,0.0,0.0,0.0507859707805866,0.0,0.0,0.0097146194483199,0.0,0.0,0.0,202.66896298613815
2023-09-08 16:01:31.400,-0.313457,0.193884,-0.017523,0.092806,0.092656,0.073443,48.359269,-4.557301,50.738692,50.788002,0.589792,0.588891,0.580561,-1.814312,0.046031,-10.381874,-0.134789,-0.166982,0.126667,33.033165,-1.828218,0.057286,-10.34707,-0.138382,-0.166904,0.126978,0.3362141128832,0.1116025157248,0.6117688309248,-2.07482498976,0.133912521728,-9.6334506548224,359.7126616657419,359.9883116609793,341.9303435360617,0.001507,0.00152,0.011876,-0.98759,0.002492,-0.000293,0.157034,0.001507,0.00152,0.011876,2.5189463,0.0,0.0,0.0517749,0.0,0.0,0.0051564,0.0,0.0,0.0,202.7792076982692
2023-09-08 16:01:31.425,-0.362556874304,0.2203551822336,-0.0333717094272,0.0931672490751999,0.0930272490496,0.073624249536,48.3592683750016,-4.557301,50.7390007492096,50.788002,0.5909207471104,0.5900134971263999,0.581485997632,-2.0507251447808,0.1096352121728,-10.39051460288,-0.1285552659584,-0.1740613568768,0.1221751364992,33.03302437536,-2.0588311596288,0.1246739524864,-10.5154683188992,-0.1250276591872,-0.1756996024832,0.1218223881984,0.331481,0.117745,0.594552,-2.021997,0.288884,-9.6451,359.5428875436951,359.7315556063336,342.1029824397503,0.0015088749952,0.0015218749952,0.011876,-0.9878137494272,0.0043026203647999,0.0016951199103999,0.155555878784,0.0015088749952,0.0015218749952,0.011876,2.51968083978624,0.0,0.0,0.05342310411392,0.0,0.0,-0.00244058055168,0.0,0.0,0.0,202.9518466019578
2023-09-08 16:01:31.440,-0.392017,0.236238,-0.042881,0.093384,0.09325,0.073733,48.359268,-4.557301,50.739186,50.788002,0.591598,0.590687,0.582041,-2.192574,0.147798,-10.395699,-0.124815,-0.178309,0.11948,33.03294,-2.1972,0.165107,-10.616508,-0.117015,-0.180977,0.118729,0.3368120227456,0.1129176044032,0.5789639334912,-1.822970525824,0.1916352100735999,-9.494617482944,359.4410223750704,359.5775009218705,342.20656648909426,0.00151,0.001523,0.011876,-0.987948,0.005389,0.002888,0.154669,0.00151,0.001523,0.011876,2.5201215666666665,0.0,0.0,0.0544120333333333,0.0,0.0,-0.0069987999999999,0.0,0.0,0.0,203.05543065130175
2023-09-08 16:01:31.465,-0.4231452536448,0.2423788176128,-0.0508005630592,0.0937489990656,0.0936339573504,0.0739144578688,48.359268,-4.557301,50.740583913088,50.788002,0.5927536220416,0.5918357470592,0.5829812059264,-1.9502139954432,0.0141258422016,-10.3772252972928,-0.1045069269888,-0.1795846217344,0.1155593850368,33.0329375000064,-1.9329550514688,0.0263311052671999,-10.3870285874688,-0.1014212899199999,-0.1799870025344,0.1152246339712,0.345697,0.104872,0.552984,-1.491262,0.029555,-9.243815,359.3058763011188,359.3236096488665,342.3700380915291,0.0015124999936,0.0015254999936,0.0118741250048,-0.988144874496,0.0068883711616,0.0049054948352,0.153275253568,0.0015124999936,0.0015254999936,0.0118741250048,2.5208561064529067,0.0,0.0,0.0560602374472533,0.0,0.0,-0.01459578055168,0.0,0.0,0.0,203.21890225373664
2023-09-08 16:01:31.480,-0.4418223333333334,0.2460633333333333,-0.0555523333333333,0.093968,0.0938643333333333,0.0740233333333333,48.359268,-4.557301,50.741422666666665,50.788002,0.593447,0.592525,0.5835453333333334,-1.804797,-0.066078,-10.366141,-0.092322,-0.18035,0.113207,33.032936,-1.774407,-0.056935,-10.24934,-0.092065,-0.179393,0.113122,0.350274832032,0.1046136238976,0.5624211027648001,-1.338640098816,0.0141814344064,-9.1614333360064,359.224788103188,359.1712738451228,342.4681217225715,0.001514,0.001527,0.011873,-0.988263,0.007788,0.006116,0.152439,0.001514,0.001527,0.011873,2.521296833333333,0.0,0.0,0.0570491666666666,0.0,0.0,-0.019154,0.0,0.0,0.0,203.316985884779
2023-09-08 16:01:31.545,-0.5227559203114667,0.2620294842794666,-0.0761432297258666,0.0949169990656,0.0948626240170666,0.0744951245354666,48.359268,-4.557301,50.74505724642133,50.788002,0.5964516220416001,0.5955117470592,0.5859898725930667,-1.2265770693248,0.0240557862528,-10.082505654272,-0.0446656719231999,-0.1574123350848,0.1161758720768,33.032375375552,-1.1579646694592,0.0569229503936,-10.1698499532672,-0.0423571114432,-0.1564512725888,0.1160786845888,0.370112,0.103494,0.603315,-0.677282,-0.052437,-8.804448,359.0510065940467,358.5815432911979,342.9134455683913,0.0015204999935999,0.0015318749952,0.0118754374976,-0.9887740619968,0.0100231852992,0.0110121201791999,0.1486421912384,0.0015204999935999,0.0015318749952,0.0118754374976,2.52320663978624,0.0,0.0,0.06133450411392,0.0,0.0,-0.03890618055168,0.0,0.0,0.0,203.7623097305988
2023-09-08 16:01:31.560,-0.541433,0.265714,-0.080895,0.095136,0.095093,0.074604,48.359268,-4.557301,50.745896,50.788002,0.597145,0.596201,0.586554,-1.093141,0.044856,-10.017051,-0.033668,-0.152119,0.116861,33.032246,-1.015708,0.083198,-10.151506,-0.030886,-0.151157,0.116761,0.37441514336,0.0938763339648,0.6195491942656001,-0.5408830430336,0.0653071273728,-9.309327654144,359.01090295826566,358.44545091025105,343.0162131493936,0.001522,0.001533,0.011876,-0.988892,0.010539,0.012142,0.147766,0.001522,0.001533,0.011876,2.523647366666667,0.0,0.0,0.0623234333333333,0.0,0.0,-0.0434644,0.0,0.0,0.0,203.8650773116011
2023-09-08 16:01:31.580,-0.538518,0.26602,-0.080347,0.094396,0.0943725,0.0742475,48.359268,-4.557301,50.738254,50.788002,0.5964955000000001,0.595558,0.586284,-0.7825135000000001,0.099044,-10.0658025,-0.02473,-0.138987,0.1151865,33.032238,-0.749679,0.1118525,-9.9974495,-0.0223575,-0.13715,0.115068,0.38015264336,0.0810528339648,0.6411946942656,-0.3590185430336,0.2222986273728,-9.982497654144,358.9910213227746,358.3036152080664,343.1443551602746,0.001517,0.001529,0.0118704999999999,-0.9890345,0.010877,0.013353,0.1466705,0.001517,0.001529,0.0118704999999999,2.524235,0.0,0.0,0.063642,0.0,0.0,-0.049542,0.0,0.0,0.0,203.9932193224821
2023-09-08 16:01:31.585,-0.537789259328,0.2660964990208,-0.0802100017535999,0.094211002368,0.0941923773056,0.0741583761408,48.359268,-4.557301,50.7363435244544,50.788002,0.5963331270784,0.5953972520576,0.586216500864,-0.704857619008,0.1125908265984,-10.0779902189952,-0.0224955286016,-0.1357040420224,0.1147678803584,33.0322360000256,-0.6831726012928001,0.1190160333055999,-9.9589358679808,-0.0202254022911999,-0.1336482948224,0.1146447554176,0.381587,0.077847,0.646606,-0.313553,0.261546,-10.150788,358.9860509775231,358.26815673639453,343.17639025294045,0.001515750016,0.0015280000128,0.0118691250176,-0.989070124544,0.0109614989184,0.0136557461248,0.1463966285056,0.001515750016,0.0015280000128,0.0118691250176,2.524235,0.0,0.0,0.0630617574272,0.0,0.0,-0.05147562524928,0.0,0.0,0.0,204.025254415148
2023-09-08 16:01:31.600,-0.535603,0.266326,-0.079799,0.093656,0.093652,0.073891,48.359268,-4.557301,50.730612,50.788002,0.595846,0.594915,0.586014,-0.471886,0.153232,-10.114554,-0.015792,-0.125855,0.113512,33.03223,-0.48365,0.140507,-9.843393,-0.013829,-0.123143,0.113375,0.3839303849984,0.0764287439488,0.673617365248,-0.2204254776576,0.2308674941056,-10.1943785609856,358.9711396872836,358.1617795058818,343.27249717115563,0.001512,0.001525,0.011865,-0.989177,0.011215,0.014564,0.145575,0.001512,0.001525,0.011865,2.524235,0.0,0.0,0.061321,0.0,0.0,-0.0572766,0.0,0.0,0.0,204.12136133336315
2023-09-08 16:01:31.625,-0.5342161285504,0.2657110015744,-0.0867708571519999,0.0940128740864,0.0940263740416,0.0740716245376,48.359268,-4.557301,50.7336588672,50.788002,0.5969984970496001,0.5960606220672,0.5869539975936,-0.3708118837504,0.1351376713216,-10.0560372748032,-0.0082332693504,-0.1080487955839999,0.1109657565184,33.0326662488832,-0.3426559859456,0.146185110464,-9.8973003619968,-0.0074308913792,-0.105933669056,0.110584382144,0.387836,0.074065,0.718636,-0.065214,0.179737,-10.267029,358.95910760438807,358.028817827932,343.4329965626372,0.0015144999936,0.0015268749952,0.0118631250048,-0.9893569995392,0.0114643743616,0.0157127470592,0.1441981285248,0.0015144999936,0.0015268749952,0.0118631250048,2.524235,0.0,0.0,0.0584197574272,0.0,0.0,-0.06694482524928,0.0,0.0,0.0,204.2818607248447
2023-09-08 16:01:31.640,-0.533384,0.265342,-0.090954,0.094227,0.094251,0.07418,48.359268,-4.557301,50.735487,50.788002,0.59769,0.596748,0.587518,-0.310167,0.124281,-10.020927,-0.003698,-0.097365,0.109438,33.032928,-0.258059,0.149592,-9.929645,-0.003592,-0.095608,0.10891,0.3914663904896,0.0750602542464,0.7198423801472,0.0901877880448,0.2242223148032,-10.273809028928,358.9518883053672,357.9490402765497,343.52929685493325,0.001516,0.001528,0.011862,-0.989465,0.011614,0.016402,0.143372,0.001516,0.001528,0.011862,2.524235,0.0,0.0,0.056679,0.0,0.0,-0.0727458,0.0,0.0,0.0,204.3781610171408
2023-09-08 16:01:31.665,-0.5172252913663999,0.2567398345216,-0.1024219393919999,0.0942204375168,0.0942411562752,0.0741849999871999,48.359268,-4.5573008437504,50.7357074681856,50.7878459066496,0.598304842176,0.5973600296831999,0.588109404736,0.0089203081343999,0.12487474848,-10.0085814066048,0.0072563469568,-0.0814825406591999,0.1074723800319999,33.0333048740352,0.0348915000447999,0.1039002419712,-10.0387753456256,0.007448596736,-0.0793461666304,0.1072562542336,0.397517,0.076719,0.721853,0.349189,0.298364,-10.285109,358.9647798227553,357.85332075994324,343.6853200250995,0.0015178749951999,0.0015304999936,0.0118607500032,-0.9896437495424,0.0115977500416,0.0172607478016,0.14202825344,0.0015178749951999,0.0015304999936,0.0118607500032,2.524235,0.0,0.0,0.0537777574272,0.0,0.0,-0.08241402524928,0.0,0.0,0.0,204.534184187307
2023-09-08 16:01:31.680,-0.50753,0.2515785,-0.1093027499999999,0.0942165,0.0942352499999999,0.074188,48.359268,-4.55730075,50.73583975,50.78775225,0.59867375,0.5977272499999999,0.58846425,0.200374,0.125231,-10.001174,0.013829,-0.071953,0.106293,33.033531,0.210663,0.076485,-10.104254,0.014073,-0.069589,0.106264,0.3988102555178667,0.0770365013546666,0.7242636352853333,0.3240577677738667,0.2459420263338667,-10.259979517781334,358.9725147859919,357.79588865791123,343.77893456627174,0.001519,0.001532,0.01186,-0.989751,0.011588,0.017776,0.141222,0.001519,0.001532,0.01186,2.524235,0.0,0.0,0.052037,0.0,0.0,-0.088215,0.0,0.0,0.0,204.6277987284793
2023-09-08 16:01:31.780,-0.442895,0.21716975,-0.155174625,0.09419025,0.094195875,0.074208,48.359268,-4.557300124999999,50.736721625,50.787127875,0.6011331249999999,0.600175375,0.5908298750000001,0.2323006666666666,-0.0048923333333333,-10.072557333333332,0.0408456666666666,-0.0341955,0.1076638333333333,33.03246016666667,0.222123,-0.0059391666666666,-10.1032465,0.0413471666666666,-0.0336606666666666,0.108084,0.4074319221845333,0.0791531680213333,0.7403344686186666,0.1565169344405333,-0.1035363069994666,-10.092450351114666,359.16493311219,357.60347033171314,344.383261800686,0.0015156666666666,0.0015286666666666,0.0118508333333333,-0.990461,0.0100571666666666,0.019726,0.135977,0.0015156666666666,0.0015286666666666,0.0118508333333333,2.524235,0.0,0.0,0.040432,0.0,0.0,-0.126888,0.0,0.0,0.0,205.23212596289352
2023-09-08 16:01:31.785,-0.4396632913664,0.2154493345216,-0.157468189392,0.0941889375168,0.0941939062752,0.0742089999872,48.359268,-4.5573000937504,50.7367657181856,50.7870966566496,0.601256092176,0.6002977796832,0.590948154736,0.2338969795669333,-0.0113984167210666,-10.076126454314666,0.0421964827093333,-0.0323076491648,0.1077323741226666,33.03240662568533,0.2226959926656,-0.0100603222485333,-10.1031961256448,0.0427108575445333,-0.0318642729941333,0.1081749988352,0.407863,0.079259,0.741138,0.14814,-0.12101,-10.084074,359.1745539053521,357.59384953855096,344.41347777563726,0.0015155000021333,0.0015285000021333,0.0118503750058666,-0.9904964995456,0.0099806259797333,0.019823498752,0.1357147533568,0.0015155000021333,0.0015285000021333,0.0118503750058666,2.524235,0.0,0.0,0.03966915976448,0.0,0.0,-0.128672977152,0.0,0.0,0.0,205.2623419378448
2023-09-08 16:01:31.800,-0.429968,0.210288,-0.164349,0.094185,0.094188,0.074212,48.359268,-4.5573,50.736898,50.787003,0.601625,0.600665,0.591303,0.238686,-0.030917,-10.086834,0.046249,-0.026644,0.107938,33.032246,0.224415,-0.022424,-10.103045,0.046802,-0.026475,0.108448,0.4016690985728,0.0772358663679999,0.7356112264192,0.1503405093888,-0.1010715399296,-10.115444758848,359.2034167774296,357.5649866664735,344.5041272475688,0.001515,0.001528,0.011849,-0.990603,0.009751,0.020116,0.134928,0.001515,0.001528,0.011849,2.524235,0.0,0.0,0.0373806,0.0,0.0,-0.134028,0.0,0.0,0.0,205.35299140977637
2023-09-08 16:01:31.825,-0.4175849067008,0.2021742707712,-0.1755058464384,0.094534999104,0.0945248741376,0.0743907495423999,48.3592673750016,-4.5573,50.741535488128,50.787003,0.6027956220032,0.6018287470208,0.5922548725632,0.1737461662464,-0.0405082254463999,-10.104937078656,0.046605249088,-0.0256496275456,0.1114186160896,33.032427249536,0.170787012288,-0.032680223744,-10.0954150195328,0.0474132484352,-0.0255350024063999,0.1118404913152,0.391346,0.073864,0.7264,0.154008,-0.067841,-10.167729,359.2632907137431,357.5325072046097,344.6688163822015,0.0015168749952,0.0015304999936,0.0118477500032,-0.9907942495104,0.009241626304,0.0204803740671999,0.1334942536704,0.0015168749952,0.0015304999936,0.0118477500032,2.524235,0.0,0.0,0.03356635976448,0.0,0.0,-0.142952977152,0.0,0.0,0.0,205.51768054440905
2023-09-08 16:01:31.840,-0.410155,0.197306,-0.1822,0.094745,0.094727,0.074498,48.359267,-4.5573,50.744318,50.787003,0.603498,0.602527,0.592826,0.134782,-0.046263,-10.115799,0.046819,-0.025053,0.113507,33.032536,0.13861,-0.038834,-10.090837,0.04778,-0.024971,0.113876,0.3892838662016,0.073916500224,0.7341347830016001,0.1424170755456,-0.0837496928768,-10.1596315904512,359.2992153207755,357.5130193944552,344.7676305375495,0.001518,0.001532,0.011847,-0.990909,0.008936,0.020699,0.132634,0.001518,0.001532,0.011847,2.524235,0.0,0.0,0.0312778,0.0,0.0,-0.148308,0.0,0.0,0.0,205.61649469975703
2023-09-08 16:01:31.865,-0.3966819094912,0.1891635208448,-0.192065599744,0.0950962491008,0.0950663741312,0.0746767495424,48.359267,-4.5573,50.7491998625024,50.787003,0.604682371968,0.6037038719872,0.593785372544,0.161756930944,-0.0632823314304,-10.1244721027968,0.0431102594944,-0.0271767445632,0.1170919908224,33.032073501184,0.1601936947456,-0.0596395717376,-10.112746318912,0.0431556368384,-0.0274134937472,0.11753224064,0.385847,0.074004,0.747026,0.123099,-0.110264,-10.146136,359.34798822822705,357.47481036930776,344.94087820733705,0.0015204999936,0.0015338749951999,0.0118463750016,-0.9911033745024,0.008526626048,0.0210983739775999,0.131127753856,0.0015204999936,0.0015338749951999,0.0118463750016,2.524235,0.0,0.0,0.02746355976448,0.0,0.0,-0.157232977152,0.0,0.0,0.0,205.78974236954457
2023-09-08 16:01:31.880,-0.388598,0.184278,-0.197985,0.095307,0.09527,0.074784,48.359267,-4.5573,50.752129,50.787003,0.605393,0.60441,0.594361,0.177942,-0.073494,-10.129676,0.040885,-0.028451,0.119243,33.031796,0.173144,-0.072123,-10.125892,0.040381,-0.028879,0.119726,0.3918012754048,0.0725692438784,0.7465152478208,0.0900741090944,-0.105096477952,-10.127224669312,359.3772521724723,357.4518847977147,345.0448275188338,0.001522,0.001535,0.011846,-0.99122,0.008281,0.021338,0.130224,0.001522,0.001535,0.011846,2.524235,0.0,0.0,0.025175,0.0,0.0,-0.162588,0.0,0.0,0.0,205.89369168104133
2023-09-08 16:01:31.905,-0.3776061531392,0.1773686426879999,-0.204713107776,0.0956607490944,0.09561374912,0.0749639995392,48.359267,-4.5573,50.7571858620544,50.787003,0.6065904969343999,0.605600621952,0.5953284975232,0.1069378067712,-0.0852452199168,-10.0865929852928,0.0330518950528,-0.0305053697408,0.1235473639807999,33.03190537472,0.1016716829696,-0.0845948430719999,-10.0859239773184,0.0321385211008,-0.0309027448192,0.1239672391424,0.401725,0.070178,0.745664,0.035033,-0.096484,-10.095706,359.4064729452186,357.4089130730878,345.22713506056346,0.0015238749952,0.0015368749952,0.011849124992,-0.9914187494912,0.0080416256128,0.0217554989312,0.1286421290496,0.0015238749952,0.0015368749952,0.011849124992,2.524235,0.0,0.0,0.02089426095872,0.0,0.0,-0.16801373611008,0.0,0.0,0.0,206.07599922277095
2023-09-08 16:01:31.920,-0.371011,0.173223,-0.20875,0.095873,0.09582,0.075072,48.359267,-4.5573,50.76022,50.787003,0.607309,0.606315,0.595909,0.064335,-0.092296,-10.060743,0.028352,-0.031738,0.12613,33.031971,0.058788,-0.092078,-10.061943,0.027193,-0.032117,0.126512,0.401683749824,0.0631868451712,0.7441324934656,0.0693490214144,-0.095604621248,-10.0743451588608,359.42400552855497,357.383129862299,345.3365203323349,0.001525,0.001538,0.011851,-0.991538,0.007898,0.022006,0.127693,0.001525,0.001538,0.011851,2.524235,0.0,0.0,0.0183258,0.0,0.0,-0.1712692,0.0,0.0,0.0,206.1853844945424
2023-09-08 16:01:31.945,-0.35880790624,0.1660242684288,-0.2139349867264,0.0962273740928,0.0961656241152,0.0752507495423999,48.359267,-4.5573,50.7655599863296,50.787003,0.6085202468992,0.6075193719167999,0.5968827475071999,0.0823212039552,-0.1044878437888,-10.0513005241728,0.0190132739072,-0.0332136212224,0.1309093627648,33.0318778752384,0.0838798107648,-0.102840472448,-10.048933658304,0.0178298989696,-0.033416996672,0.13148073728,0.401615,0.051535,0.74158,0.126542,-0.094139,-10.038744,359.4310242435774,357.3371859267187,345.5313254839769,0.0015274999936,0.0015398749952,0.0118503750016,-0.9917436244736,0.0078498751232,0.022424748928,0.1260067543168,0.0015274999936,0.0015398749952,0.0118503750016,2.524235,0.0,0.0,0.01404506095872,0.0,0.0,-0.17669493611008,0.0,0.0,0.0,206.3801896461844
2023-09-08 16:01:31.960,-0.351486,0.161705,-0.217046,0.09644,0.096373,0.075358,48.359267,-4.5573,50.768764,50.787003,0.609247,0.608242,0.597467,0.093113,-0.111803,-10.045635,0.01341,-0.034099,0.133777,33.031822,0.098935,-0.109298,-10.041128,0.012212,-0.034197,0.134462,0.4075921505024,0.0605935386495999,0.7426120044032,0.0794159239296,-0.0971528878592,-9.9911364218752,359.43523550133955,357.3096193771837,345.6482093728861,0.001529,0.001541,0.01185,-0.991867,0.007821,0.022676,0.124995,0.001529,0.001541,0.01185,2.524235,0.0,0.0,0.0114766,0.0,0.0,-0.1799504,0.0,0.0,0.0,206.4970735350936
2023-09-08 16:01:31.980,-0.3407235,0.157271,-0.215083,0.0955564999999999,0.0954855,0.0749384999999999,48.359267,-4.5572995,50.7589675,50.7875025,0.6083395,0.6073424999999999,0.5970485,0.0730125,-0.111441,-9.986649,0.0056695,-0.034681,0.137207,33.0315435,0.0709355,-0.1113615,-9.9816675,0.0044805,-0.0347045,0.137841,0.4155616505023999,0.0726715386495999,0.7439880044032,0.0165814239296,-0.1011713878592,-9.9276599218752,359.4233179792008,357.2709447260124,345.8047987382953,0.0015235,0.0015355,0.011844,-0.992027,0.0079345,0.023009,0.1236424999999999,0.0015235,0.0015355,0.011844,2.524235,0.0,0.0,0.008052,0.0,0.0,-0.184291,0.0,0.0,0.0,206.6536629005028
2023-09-08 16:01:31.985,-0.33803290944,0.1561625141888,-0.2145922562816,0.0953356278272,0.09526362784,0.0748336263424,48.359267,-4.5572993750016,50.7565184063488,50.7876273734016,0.608112627904,0.6071176278784,0.5969438763392,0.0679874393216,-0.1113505011583999,-9.9719026887552,0.0037343997695999,-0.0348264981376,0.138064489024,33.031473875891194,0.0639357145984,-0.1118773683968,-9.9668025652736,0.0025476497408,-0.034831373376,0.1386857391872,0.417554,0.075691,0.744332,0.000873,-0.102176,-9.911791,359.4203386368022,357.2612761869784,345.84394557856166,0.0015221250176,0.0015341250176,0.0118425000192,-0.992066999488,0.0079628746368,0.0230922489344,0.123304379328,0.0015221250176,0.0015341250176,0.0118425000192,2.524334115397973,0.0,0.0,0.00732995924224,0.0,0.0,-0.1829835834018133,0.0,0.0,0.0,206.6928097407692
2023-09-08 16:01:32.000,-0.329961,0.152837,-0.21312,0.094673,0.094598,0.074519,48.359267,-4.557299,50.749171,50.788002,0.607432,0.606443,0.59663,0.052912,-0.111079,-9.927663,-0.002071,-0.035263,0.140637,33.031265,0.042936,-0.113425,-9.922207,-0.003251,-0.035212,0.14122,0.4151404897024,0.0688052206208,0.7430041193344,0.0353367720448,-0.1073690221568,-9.8736747123712,359.4114004570621,357.23227007484104,345.96138810370456,0.001518,0.00153,0.011838,-0.992187,0.008048,0.023342,0.12229,0.001518,0.00153,0.011838,2.5246314666666665,0.0,0.0,0.0051638,0.0,0.0,-0.1790612666666667,0.0,0.0,0.0,206.81025226591208
2023-09-08 16:01:32.025,-0.3187622786688,0.1462282669184,-0.213398124288,0.0950248740992,0.0949423741184,0.0746989995392,48.359267,-4.557299,50.7546716109184,50.788002,0.6086201219584,0.607624246976,0.5975937475328,0.0379726632448,-0.1110715000191999,-9.8813137436544,-0.0118184750463999,-0.0341955027328,0.145177613376,33.0319949981312,0.0396028835328,-0.1136743743616,-9.8774058646912,-0.0131809745792,-0.034018253056,0.1456174887424,0.411118,0.057329,0.740791,0.092776,-0.116024,-9.810148,359.37204551925794,357.1880091984753,346.1754589118876,0.0015204999936,0.0015318749952,0.0118373750016,-0.9924001244544,0.0083911241216,0.0236994990848,0.1204450047232,0.0015204999936,0.0015318749952,0.0118373750016,2.5251270487313064,0.0,0.0,0.00155355924224,0.0,0.0,-0.1725241167351466,0.0,0.0,0.0,207.0243230740951
2023-09-08 16:01:32.040,-0.312043,0.142263,-0.213565,0.095236,0.095149,0.074807,48.359267,-4.557299,50.757972,50.788002,0.609333,0.608333,0.598172,0.029009,-0.111067,-9.853504,-0.017667,-0.033555,0.147902,33.032433,0.037603,-0.113824,-9.850525,-0.019139,-0.033302,0.148256,0.4134988851584,0.0572217495424,0.740588499136,0.0824900811136,-0.1210092712704,-9.784316014784,359.34843239537724,357.16145249136287,346.3039022736337,0.001522,0.001533,0.011837,-0.992528,0.008597,0.023914,0.119338,0.001522,0.001533,0.011837,2.5254244,0.0,0.0,-0.0006125999999999,0.0,0.0,-0.1686018,0.0,0.0,0.0,207.1527664358412
2023-09-08 16:01:32.065,-0.3012065991698285,0.1356439990875428,-0.2074237657216,0.0953869817563428,0.0952943567707428,0.0748922676388571,48.35926691071452,-4.557299,50.76081627843292,50.78791280379977,0.6102308548443429,0.6092262119990858,0.5989497658660572,0.0760532545664,-0.1119194978176,-9.8012972586496,-0.0258001041792,-0.030730007232,0.1515563656448,33.032823623999995,0.0764954004352,-0.1119383798272,-9.795003267136,-0.0267983553919999,-0.0303045076736,0.15199036544,0.417467,0.057043,0.740251,0.065347,-0.129318,-9.741263,359.29085028437714,357.1244609984132,346.5279640077926,0.0015238749952,0.0015354999936,0.0118363750016,-0.9927461244416,0.0090863737472,0.0241927492864,0.117409879936,0.0015238749952,0.0015354999936,0.0118363750016,2.52591998206464,0.0,0.0,-0.0042228407577599,0.0,0.0,-0.16206465006848,0.0,0.0,0.0,207.37682817000007
2023-09-08 16:01:32.080,-0.2947047142857143,0.1316725714285714,-0.203739,0.0954775714285714,0.0953815714285714,0.0749434285714285,48.359266857142856,-4.557299,50.76252285714286,50.78785928571428,0.6107695714285715,0.6097621428571429,0.5994164285714286,0.10428,-0.112431,-9.769973,-0.03068,-0.029035,0.153749,33.033058,0.099831,-0.110807,-9.76169,-0.031394,-0.028506,0.154231,0.4173198386578285,0.0557137264713142,0.7406911983067429,0.0614049296091428,-0.1217287711908571,-9.716091928318171,359.2563007819202,357.10226595112584,346.6624019660471,0.001525,0.001537,0.011836,-0.992877,0.00938,0.02436,0.116253,0.001525,0.001537,0.011836,2.5262173333333333,0.0,0.0,-0.0063889999999999,0.0,0.0,-0.1581423333333333,0.0,0.0,0.0,207.51126612825465
2023-09-08 16:01:32.320,-0.190675,0.06813,-0.144783,0.096927,0.096777,0.075762,48.359266,-4.557299,50.789828,50.787003,0.619389,0.618337,0.606883,0.0256217142857142,-0.0217615714285714,-9.35709157142857,0.0056157142857142,0.0642958571428571,0.1565381428571428,33.03307085714286,0.0265932857142857,-0.0189529999999999,-9.355870571428571,0.0067779999999999,0.0653708571428571,0.1564012857142857,0.4149652672292571,0.0344454407570285,0.7477343411638857,-0.0016679275337142,-0.0003016283337143,-9.313356499746742,358.72791910325054,357.4289664859095,348.8827853095176,0.001533,0.001543,0.011824,-0.994962,0.013219,0.021253,0.097081,0.001533,0.001543,0.011824,2.5309749333333333,0.0,0.0,-0.0410474,0.0,0.0,-0.0953855333333333,0.0,0.0,0.0,209.73164947172512
2023-09-08 16:01:32.345,-0.1833122063488,0.0636531364608,-0.1343777141376,0.0962235643008,0.0960745017984,0.0753382510848,48.359266,-4.557298687500801,50.7894001885952,50.7873151867008,0.6115465200768,0.6105342074752,0.5996480185216,0.0174281638326857,-0.0123168634642285,-9.31408319938743,0.0093965081782857,0.0740177965403428,0.1568286778276571,33.033072196425145,0.0189643766729142,-0.0093848994943999,-9.313597822504228,0.0107542398207999,0.0751496713947428,0.1566273565641143,0.41472,0.03223,0.748468,-0.008238,0.012347,-9.271405,358.7356540136834,357.5511136131615,349.10763485862793,0.0015348749952,0.0015448749952,0.0118227500032,-0.9951738744576,0.0130102505344,0.0202242526336,0.0951178800256,0.0015348749952,0.0015448749952,0.0118227500032,2.5314705153979733,0.0,0.0,-0.0446576407577599,0.0,0.0,-0.0888483834018133,0.0,0.0,0.0,209.95649902083545
2023-09-08 16:01:32.360,-0.1788945,0.0609669999999999,-0.1281344999999999,0.0958015,0.095653,0.075084,48.359266,-4.5572985,50.7891435,50.7875025,0.606841,0.6058525,0.595307,0.012512,-0.00665,-9.288278,0.011665,0.079851,0.157003,33.033073,0.014387,-0.003644,-9.288234,0.01314,0.081017,0.156763,0.4133448691328,0.0299826154112,0.7440414811136,-0.04021626144,0.0128723772416,-9.2614809576576,358.7402949916254,357.62440238982856,349.24254550908023,0.001536,0.001546,0.011822,-0.995301,0.012885,0.019607,0.09394,0.001536,0.001546,0.011822,2.5317678666666668,0.0,0.0,-0.0468238,0.0,0.0,-0.0849260666666666,0.0,0.0,0.0,210.09140967128772
2023-09-08 16:01:32.385,-0.1715317063488,0.0564901364608,-0.1177292141376,0.0950980643007999,0.0949505017984,0.0746602510848,48.359266,-4.5572981875008,50.7887156885952,50.7878146867008,0.5989985200768,0.5980497074752,0.5880720185216,-0.0352591277055999,0.0020112278272,-9.2671386791168,0.0242793427072,0.0897765995904,0.1543461318016,33.0328661255296,-0.0378703662207999,0.0036591063039999,-9.2645284356864,0.02574934272,0.0909800994944,0.1539580071808,0.411053,0.026237,0.736664,-0.093513,0.013748,-9.244941,358.78079584208626,357.7699691070022,349.4537873453921,0.0015285000192,0.0015378750208,0.0118120000256,-0.9955022494848,0.012381876288,0.0183982530944,0.092086879744,0.0015285000192,0.0015378750208,0.0118120000256,2.5322634487313067,0.0,0.0,-0.0504340407577599,0.0,0.0,-0.0783889167351466,0.0,0.0,0.0,210.3026515075996
2023-09-08 16:01:32.400,-0.167114,0.053804,-0.111486,0.094676,0.094529,0.074406,48.359266,-4.557298,50.788459,50.788002,0.594293,0.593368,0.583731,-0.063922,0.007208,-9.254455,0.031848,0.095732,0.152752,33.032742,-0.069225,0.008041,-9.250305,0.033315,0.096958,0.152275,0.407685485632,0.024030115584,0.7414797705472,-0.06610038304,0.0147091291008,-9.246988508736,358.8050965182547,357.85730973354924,349.5805333124279,0.001524,0.001533,0.011806,-0.995623,0.01208,0.017673,0.090975,0.001524,0.001533,0.011806,2.5325608,0.0,0.0,-0.0526002,0.0,0.0,-0.0744666,0.0,0.0,0.0,210.42939747463544
2023-09-08 16:01:32.425,-0.1614033896192,0.0475640159744,-0.101714150016,0.0950134991359999,0.0948627491456,0.0745853745408,48.359266,-4.557298,50.7917289916288,50.788002,0.5954667469952,0.5945354970112,0.5846797475712,-0.0551176475392,0.0111129900031999,-9.2471718936448,0.0447873418752,0.1042613531648,0.1496157580288,33.032910749568,-0.0532862908031999,0.0109622425216,-9.247408132416,0.0461762170752,0.1051879789312,0.149146883008,0.402073,0.020352,0.749506,-0.020413,0.016311,-9.250401,358.873457370182,358.0203874285084,349.7906650458536,0.0015258749951999,0.0015354999936,0.0118047500032,-0.995819874496,0.0113287519232,0.0163298784384,0.0891275047296,0.0015258749951999,0.0015354999936,0.0118047500032,2.53305638206464,0.0,0.0,-0.0562104407577599,0.0,0.0,-0.06792945006848,0.0,0.0,0.0,210.6395292080611
2023-09-08 16:01:32.440,-0.157977,0.04382,-0.095851,0.095216,0.095063,0.074693,48.359266,-4.557298,50.793691,50.788002,0.596171,0.595236,0.585249,-0.049835,0.013456,-9.242802,0.052551,0.109379,0.147734,33.033012,-0.043723,0.012715,-9.24567,0.053893,0.110126,0.14727,0.4042033840896,0.0191212447487999,0.743273473408,-0.0498633756543999,0.0110362274944,-9.2420088391936,358.91447416134514,358.11823471345184,349.9167449466107,0.001527,0.001537,0.011804,-0.995938,0.010878,0.015524,0.088019,0.001527,0.001537,0.011804,2.533353733333333,0.0,0.0,-0.0583766,0.0,0.0,-0.0640071333333333,0.0,0.0,0.0,210.76560910881824
2023-09-08 16:01:32.465,-0.1547740915328,0.0390727204863999,-0.085030194368,0.0955537074688,0.0953971658112,0.074871124544,48.359266,-4.557298,50.795884119385605,50.788002,0.5973722469248001,0.5964305802752,0.5862129558656,-0.0529237420928,0.0131891256832,-9.2401545067776,0.064494719424,0.11526960992,0.1446546328832,33.033165124608,-0.0538692240256,0.0116606276992,-9.2399706395904,0.0658517193856,0.1158834852608,0.1443400075008,0.407754,0.01707,0.732886,-0.098947,0.002245,-9.228022,359.0114470199199,358.2939174476349,350.1206457799654,0.0015294999936,0.0015388749951999,0.0118027500032,-0.99612549952,0.0098767525632,0.0140883786751999,0.0862227545984,0.0015294999936,0.0015388749951999,0.0118027500032,2.533849315397973,0.0,0.0,-0.0619868407577599,0.0,0.0,-0.0574699834018133,0.0,0.0,0.0,210.9695099421729
2023-09-08 16:01:32.480,-0.1528523333333333,0.0362243333333333,-0.0785376666666666,0.0957563333333333,0.0955976666666666,0.074978,48.359266,-4.557298,50.7972,50.788002,0.598093,0.5971473333333334,0.5867913333333333,-0.054777,0.013029,-9.238566,0.071661,0.118804,0.142807,33.033257,-0.059957,0.011028,-9.236551,0.073027,0.119338,0.142582,0.4054507401728,0.0191080086954666,0.7351040094634667,-0.0972767428736,0.0037051312298666,-9.234086025873069,359.0696311322666,358.399327807743,350.2429871151582,0.001531,0.00154,0.011802,-0.996238,0.009276,0.013227,0.085145,0.001531,0.00154,0.011802,2.5341466666666665,0.0,0.0,-0.0641529999999999,0.0,0.0,-0.0535476666666666,0.0,0.0,0.0,211.0918512773657
2023-09-08 16:01:32.560,-0.142603,0.021033,-0.043911,0.096837,0.096667,0.075548,48.359266,-4.557298,50.804218,50.788002,0.601937,0.60097,0.589876,-0.076401,0.0114923333333333,-9.256626,0.0981896666666666,0.1259393333333333,0.132511,33.03205366666667,-0.0781176666666666,0.009264,-9.256202333333334,0.098883,0.1261046666666666,0.1321306666666666,0.3931667401728,0.0299773420288,0.7469333427968,-0.0883687428736,0.0114924645632,-9.2664273592064,359.5207781001526,358.9971519711825,350.8515828851462,0.0015263333333333,0.0015366666666666,0.0117946666666666,-0.996768,0.005113,0.008377,0.079727,0.001538,0.001548,0.011804,2.5357325333333334,0.0,0.0,-0.0757057999999999,0.0,0.0,-0.0326287333333333,0.0,0.0,0.0,211.7004470473537
2023-09-08 16:01:32.580,-0.140919,0.02249,-0.036042,0.0957535,0.095588,0.0750385,48.359266,-4.557298,50.8113355,50.788002,0.600771,0.5998129999999999,0.589301,-0.0818069999999999,0.0111081666666666,-9.261141,0.1048218333333333,0.1277231666666666,0.129937,33.031752833333336,-0.0826578333333333,0.008823,-9.261115166666666,0.105347,0.1277963333333333,0.1295178333333333,0.3900957401728,0.0326946753621333,0.7498906761301334,-0.0861417428735999,0.0134392978965333,-9.274512692539734,359.6335648421241,359.1466080120424,351.00373182764315,0.0015251666666666,0.0015358333333333,0.0117928333333333,-0.9968845,0.003897,0.0071655,0.078421,0.001531,0.0015415,0.0117974999999999,2.536129,0.0,0.0,-0.078594,0.0,0.0,-0.027399,0.0,0.0,0.0,211.85259598985067
2023-09-08 16:01:32.585,-0.1404980053888,0.0228542453376,-0.0340747751808,0.0954826284672,0.0953182534528,0.0749111266304,48.359266,-4.557298,50.813114852224,50.788002,0.6004795037312001,0.5995237537024,0.58915725184,-0.0831584827008,0.0110121262293333,-9.262269735552,0.1064798537770666,0.1281691192917333,0.1292935082368,33.031677625962665,-0.0837928604714666,0.0087127514112,-9.262343359278931,0.1069629793151999,0.1282192445866666,0.1288646333610666,0.389328,0.033374,0.75063,-0.085585,0.013926,-9.276534,359.66176116669936,359.18397154399804,351.0417685763908,0.0015248750037333,0.0015356250026666,0.0117923750058666,-0.9969136246272,0.0035930038912,0.0068626288768,0.0780945041792,0.0015292500224,0.0015398750208,0.0117958750208,2.5361720780200225,0.0,0.0,-0.0779820649757257,0.0,0.0,-0.0259481971419428,0.0,0.0,0.0,211.8906327385983
2023-09-08 16:01:32.600,-0.139235,0.023947,-0.028173,0.09467,0.094509,0.074529,48.359266,-4.557298,50.818453,50.788002,0.599605,0.598656,0.588726,-0.087213,0.010724,-9.265656,0.111454,0.129507,0.127363,33.031452,-0.087198,0.008382,-9.266028,0.111811,0.129488,0.126905,0.3873487415552,0.0275806002816,0.7598505393408,-0.0533749875711999,0.0115413648256,-9.2888963027456,359.7463515840956,359.2960640529023,351.15588077014013,0.001524,0.001535,0.011791,-0.997001,0.002681,0.005954,0.077115,0.001524,0.001535,0.011791,2.5363013142857143,0.0,0.0,-0.0761462285714285,0.0,0.0,-0.0215957142857142,0.0,0.0,0.0,212.00474493234765
2023-09-08 16:01:32.625,-0.138213127616,0.0221620045695999,-0.0164880299136,0.0950056241408,0.0948427491456,0.074707124544,48.359266,-4.557298,50.8189879986304,50.788002,0.6007881219712,0.5998328719872,0.5896828725504,-0.0492805971072,0.0064858858496,-9.2850634503168,0.1141858680064,0.1284926275968,0.1242105080704,33.0307963766784,-0.045919980672,0.005466382464,-9.2878260691968,0.1143684934528,0.1282898780672,0.1238700077696,0.38405,0.017925,0.775218,0.000308,0.007567,-9.3095,134.90975461066105,359.4803411320107,351.3315993140937,0.0015264999936,0.0015374999936,0.0117903750016,-0.9971272496768,0.0011347539584,0.0044608788224,0.0755781289344,0.0015264999936,0.0015374999936,0.0117903750016,2.536516706591452,0.0,0.0,-0.0730865221185828,0.0,0.0,-0.0143416257133714,0.0,0.0,0.0,212.1804634763012
2023-09-08 16:01:32.640,-0.1376,0.021091,-0.009477,0.095207,0.095043,0.074814,48.359266,-4.557298,50.819309,50.788002,0.601498,0.600539,0.590257,-0.026521,0.003943,-9.296708,0.115825,0.127884,0.122319,33.030403,-0.021153,0.003717,-9.300905,0.115903,0.127571,0.122049,0.3779678490496,0.0193822562176,0.7727159893248,-0.0357780289664,0.0001235932415999,-9.3147661474688,0.0068754935415698,359.5909081342766,351.43703116021084,0.001528,0.001539,0.01179,-0.997203,0.000207,0.003565,0.074656,0.001528,0.001539,0.01179,2.5366459428571426,0.0,0.0,-0.0712506857142857,0.0,0.0,-0.0099891428571428,0.0,0.0,0.0,212.2858953224184
2023-09-08 16:01:32.665,-0.1390831212032,0.0227147458431999,0.000912035904,0.0951087190016,0.0949451877504,0.0747800938368,48.359266,-4.557298,50.8236421139072,50.7878459066496,0.602002686208,0.6010418112128,0.5907809049088,-0.0455672012416,0.0013642566016,-9.3093567176192,0.1155618756736,0.1247327580672,0.119547132096,33.0303861250432,-0.0466373097599999,-0.0003286146431999,-9.3107943496832,0.115378001344,0.1242872584064,0.1192215072384,0.367831,0.021811,0.768546,-0.095921,-0.012282,-9.323543,0.1694160419428761,359.7668415368533,351.6085957707838,0.0015298749952,0.0015408749952,0.0117893750016,-0.9973148747136,-0.00132424608,0.0021362536576,0.0731616288256,0.0015298749952,0.0015408749952,0.0117893750016,2.53686133516288,0.0,0.0,-0.06819097926144,0.0,0.0,-0.0027350542847999,0.0,0.0,0.0,212.4574599329913
2023-09-08 16:01:32.680,-0.139973,0.0236889999999999,0.0071454999999999,0.09504975,0.0948865,0.07475975,48.359266,-4.557298,50.82624199999999,50.78775225,0.6023055,0.6013435,0.59109525,-0.056995,-0.000183,-9.316946,0.115404,0.122842,0.117884,33.030376,-0.061928,-0.002756,-9.316728,0.115063,0.122317,0.117525,0.367826781232,0.0229780987296,0.7685500312672,-0.0883733427968,-0.0114355276384,-9.3371929644896,0.2669410367514505,359.8724022990244,351.711535239858,0.001531,0.001542,0.011789,-0.997382,-0.002243,0.001279,0.072265,0.001531,0.001542,0.011789,2.5369905714285714,0.0,0.0,-0.0663551428571428,0.0,0.0,0.0016174285714285,0.0,0.0,0.0,212.5603994020655
2023-09-08 16:01:32.800,-0.147092,0.031483,0.057013,0.094578,0.094417,0.074597,48.359266,-4.557298,50.847041,50.787003,0.604728,0.603757,0.59361,-0.0303085,-0.0018585,-9.42269525,0.0880965,0.09868225,0.1051985,33.03018175,-0.0299142499999999,-0.00301325,-9.42505725,0.08716675,0.098011,0.1047945,0.367793031232,0.0323148487296,0.7685822812672,-0.0279923427967999,-0.0046637776384,-9.4463922144896,0.9629128704968616,0.612434587215337,352.4951696162584,0.001524,0.001535,0.01178,-0.997804,-0.008735,-0.004783,0.065487,0.001524,0.001535,0.01178,2.538024457142857,0.0,0.0,-0.0516685142857142,0.0,0.0,0.0364371428571428,0.0,0.0,0.0,213.34403377846596
2023-09-08 16:01:32.825,-0.1504307414528,0.0352498653568,0.0673623485056,0.0949154991359999,0.0947538741376,0.074775124544,48.359266,-4.557298,50.84518162976,50.787003,0.6059179969535999,0.6049401219712001,0.5945737475328,-0.0247488267328,-0.0022075616064,-9.4447262873504,0.0824074520639999,0.0936489816352,0.1025556942656,33.0301412813536,-0.0232447358239999,-0.0030668436128,-9.4476257859744,0.081355046128,0.0929472629632,0.1021423192896,0.367786,0.03426,0.768589,-0.015413,-0.003253,-9.469142,1.074818403379453,0.7396667018815279,352.6434578759918,0.0015258749951999,0.0015368749952,0.01178,-0.9978702498304,-0.0097731223424,-0.0058404972928,0.0642107532672,0.0015258749951999,0.0015368749952,0.01178,2.538239849448594,0.0,0.0,-0.0486088078328685,0.0,0.0,0.0436912314294857,0.0,0.0,0.0,213.49232203819932
2023-09-08 16:01:32.840,-0.152434,0.03751,0.073572,0.095118,0.094956,0.074882,48.359266,-4.557298,50.844066,50.787003,0.606632,0.60565,0.595152,-0.021413,-0.002417,-9.457945,0.078994,0.090629,0.10097,33.030117,-0.019243,-0.003099,-9.461167,0.077868,0.089909,0.100551,0.3713698902912,0.0305973593728,0.7682728736512,-0.0381122218496,-0.003489251008,-9.4811840513792,1.141962181475244,0.8160064918253184,352.7324314392221,0.001527,0.001538,0.01178,-0.99791,-0.010396,-0.006475,0.063445,0.001527,0.001538,0.01178,2.5383690857142858,0.0,0.0,-0.0467729714285714,0.0,0.0,0.0480437142857142,0.0,0.0,0.0,213.58129560142964
2023-09-08 16:01:32.865,-0.1580427356415999,0.0426772784384,0.0827936430591999,0.0954582074624,0.095295582464,0.0750592912128,48.359266,-4.557298,50.8414593400064,50.787003,0.6078488718848,0.6068602052352,0.5961305391616,-0.0476085579391999,-6.763101439999971e-05,-9.4743362080384,0.0707015212288,0.0843502660736,0.098166882176,33.0301238749824,-0.0490685486464,-0.0009108806016,-9.476879459776,0.0696980209152,0.0835240163456,0.0978497569152,0.377343,0.024493,0.767746,-0.075944,-0.003883,-9.501254,1.2355331118503514,0.9283417419541788,352.8746678477372,0.0015288749951999,0.0015398749952,0.0117793750016,-0.9979699998464,-0.0112634977792,-0.0074156225919999,0.0622218781312,0.0015288749951999,0.0015398749952,0.0117793750016,2.538584478020023,0.0,0.0,-0.0437132649757257,0.0,0.0,0.0552978028580571,0.0,0.0,0.0,213.72353200994476
2023-09-08 16:01:32.880,-0.161408,0.0457776666666666,0.0883266666666666,0.0956623333333333,0.0954993333333333,0.0751656666666666,48.359266,-4.557298,50.83989533333333,50.787003,0.608579,0.6075863333333333,0.5967176666666667,-0.063326,0.001342,-9.484171,0.065726,0.080583,0.096485,33.030128,-0.066964,0.000402,-9.486307,0.064796,0.079693,0.096229,0.3756157426304,0.0257299427776,0.7694083820928,-0.0789348252607999,-0.002011742016,-9.5129574249344,1.291676053342928,0.9957433521578576,352.96001027544804,0.00153,0.001541,0.011779,-0.998006,-0.011784,-0.00798,0.061488,0.00153,0.001541,0.011779,2.538713714285714,0.0,0.0,-0.0418774285714285,0.0,0.0,0.0596502857142857,0.0,0.0,0.0,213.8088744376556
2023-09-08 16:01:32.945,-0.1759907356415999,0.0592126117717333,0.1123029763925333,0.0965468741290666,0.0963822491306666,0.0756266245461333,48.359266,-4.557298,50.83311800667306,50.787003,0.6117428718848,0.6107328719018666,0.5992618724949333,-0.0580033177407999,0.0027199986431999,-9.5494439357312,0.045011332896,0.0653267025216,0.0883421330176,33.029226125888,-0.0638911280256,0.0007058747008,-9.5515839982272,0.0439529580224,0.0646138273472,0.0880251955776,0.368131,0.03109,0.776612,-0.091895,0.006097,-9.563672,1.4638282153585889,1.2353504851742467,353.3013352218783,0.0015356874943999,0.0015466874943999,0.0117822499968,-0.9981424998656,-0.0133797484288,-0.0100161229952,0.0585532528896,0.0015356874943999,0.0015466874943999,0.0117822499968,2.53927373516288,0.0,0.0,-0.0339221792614399,0.0,0.0,0.0785109457152,0.0,0.0,0.0,214.1501993840858
2023-09-08 16:01:32.960,-0.179356,0.062313,0.117836,0.096751,0.096586,0.075733,48.359266,-4.557298,50.831554,50.787003,0.612473,0.611459,0.599849,-0.056775,0.003038,-9.564507,0.040231,0.061806,0.086463,33.029018,-0.063182,0.000776,-9.566648,0.039143,0.061134,0.086132,0.3680912498304,0.0328465074944,0.7758646218112,-0.0902058052928,0.005471684832,-9.5804801342144,1.5035558459823064,1.2906447293116925,353.380102930838,0.001537,0.001548,0.011783,-0.998174,-0.013748,-0.010486,0.057876,0.001537,0.001548,0.011783,2.539402971428572,0.0,0.0,-0.0320863428571428,0.0,0.0,0.0828634285714285,0.0,0.0,0.0,214.22896709304555
2023-09-08 16:01:33.000,-0.189449,0.075152,0.121219,0.094815,0.094661,0.07481,48.359266,-4.557298,50.861633,50.787003,0.610339,0.609342,0.598826,-0.0601305,0.001238,-9.6090065,0.0293355,0.053667,0.081008,33.0287495,-0.06337,-7.250000000000008e-05,-9.611576,0.0283655,0.0529405,0.080653,0.3679852498304,0.0375305074944,0.7738716218112001,-0.0857013052928,0.003804184832,-9.6253016342144,1.5724826687365443,1.4082729646520504,353.58877415982465,0.001525,0.001536,0.011772,-0.998257,-0.014387,-0.011502,0.056078,0.001525,0.001536,0.011772,2.5397476,0.0,0.0,-0.0271907999999999,0.0,0.0,0.09447,0.0,0.0,0.0,214.43763832203217
2023-09-08 16:01:33.025,-0.1967752312448,0.0813857340415999,0.127175234752,0.0951568741248,0.0950022491264,0.0749874995456,48.359266,-4.557298,50.858329883456,50.787003,0.6115414969216,0.6105382469376001,0.5997991225088,-0.0622276821312,0.00011300288,-9.6368186163008,0.0225258299328,0.0485801380224,0.077598633728,33.0285816879296,-0.0634874996992,-0.0006028111424,-9.6396559281152,0.021629579744,0.0478195756096,0.0772286337664,0.367919,0.040458,0.772626,-0.082886,0.002762,-9.653315,1.5990177086936643,1.47047453604951,353.7017539858229,0.0015268749952,0.0015378749952,0.0117713750016,-0.998300749888,-0.0146357493632,-0.0120451236096,0.0551036274944,0.0015268749952,0.0015378749952,0.0117713750016,2.539962992305737,0.0,0.0,-0.0241310935471542,0.0,0.0,0.1017240885723428,0.0,0.0,0.0,214.5506181480304
2023-09-08 16:01:33.040,-0.201171,0.085126,0.130749,0.095362,0.095207,0.075094,48.359266,-4.557298,50.856348,50.787003,0.612263,0.611256,0.600383,-0.063486,-0.000562,-9.653506,0.01844,0.045528,0.075553,33.028481,-0.063558,-0.000921,-9.656504,0.017588,0.044747,0.075174,0.3644911103744,0.0370953606528,0.7759308891008,-0.0906237830144,0.00200262176,-9.6746683411072,1.6149388413557384,1.5077957336662744,353.7695423441884,0.001528,0.001539,0.011771,-0.998327,-0.014785,-0.012371,0.054519,0.001528,0.001539,0.011771,2.5400922285714285,0.0,0.0,-0.0222952571428571,0.0,0.0,0.1060765714285714,0.0,0.0,0.0,214.6184065063959
2023-09-08 16:01:33.065,-0.2093594165375999,0.0912600467968,0.1306142086784,0.0954301248256,0.0952764789888,0.0751355623935999,48.3592658958336,-4.5572978958336,50.8565694577664,50.7871070622336,0.613021331392,0.6120107897344,0.6010735190656,-0.0898721824512,-0.00174949696,-9.6801303068416,0.0123550155776,0.0406098875904,0.0721130088064,33.0286234996352,-0.0901929318144,-0.0016353731712,-9.6835776806912,0.0116198902783999,0.0400326370688,0.0715902591744,0.358778,0.031491,0.781439,-0.10352,0.000737,-9.710257,1.6276871196617233,1.559397612989095,353.8722447660467,0.0015304999936,0.0015408749952,0.011771,-0.9983669998976,-0.0149093746816,-0.0128278738304,0.0536321272704,0.0015304999936,0.0015408749952,0.011771,2.5403076208771656,0.0,0.0,-0.0192355506900114,0.0,0.0,0.1133306600009143,0.0,0.0,0.0,214.72110892825424
2023-09-08 16:01:33.080,-0.2142724999999999,0.0949405,0.1305333333333333,0.095471,0.0953181666666666,0.0751604999999999,48.35926583333333,-4.557297833333333,50.85670233333333,50.7871695,0.6134763333333333,0.6124636666666667,0.6014878333333333,-0.105704,-0.002462,-9.696105,0.008704,0.037659,0.070049,33.028709,-0.106174,-0.002064,-9.699822,0.008039,0.037204,0.06944,0.35851864889344,0.0305721710796799,0.78085354750208,-0.10006068524032,-0.00246198864896,-9.73304689723648,1.6353361388623957,1.590358951944626,353.93386663983193,0.001532,0.001542,0.011771,-0.998391,-0.014984,-0.013102,0.0531,0.001532,0.001542,0.011771,2.5404368571428573,0.0,0.0,-0.0173997142857142,0.0,0.0,0.1176831428571428,0.0,0.0,0.0,214.78273080203945
2023-09-08 16:01:33.265,-0.2748669165376,0.1403325467968,0.1295358753450666,0.0959751248256,0.0958323123221333,0.0754680623936,48.35926506250027,-4.557297062500266,50.85834112443307,50.7879395622336,0.6190879980586667,0.6180491230677333,0.6065976857322667,-0.07014886230016,-0.03564543852032,-9.96776908101888,-0.02463853846528,-0.00144166147328,0.057399629376,33.030240799470086,-0.06838683807232,-0.0363861131264,-9.97232783072768,-0.02503621355776,-0.0022453863526399,0.05756855410688,0.35532,0.01924,0.773633,-0.057396,-0.041916,-10.014121,1.4905440245451476,1.7153295981964822,354.5986807986883,0.001532,0.001542,0.01176360000256,-0.9986823748992,-0.01369640044544,-0.0143368745728,0.04730302700544,0.001532,0.001542,0.01176360000256,2.5420307637343087,0.0,0.0,0.0052421635957028,0.0,0.0,0.1713635171437714,0.0,0.0,0.0,215.4475449608958
2023-09-08 16:01:33.280,-0.27978,0.144013,0.129455,0.096016,0.095874,0.075493,48.359265,-4.557297,50.858474,50.788002,0.619543,0.618502,0.607012,-0.067266,-0.038336,-9.989796,-0.027342,-0.004612,0.056374,33.030365,-0.065323,-0.039169,-9.994423,-0.027718,-0.005444,0.056606,0.3541248699008,0.0216272601856,0.7737432504704,-0.0333497724032,-0.0448050123264,-10.042997998208,1.4788040692326547,1.7254624000364742,354.65258489804404,0.001532,0.001542,0.011763,-0.998706,-0.013592,-0.014437,0.046833,0.001532,0.001542,0.011763,2.54216,0.0,0.0,0.007078,0.0,0.0,0.175716,0.0,0.0,0.0,215.5014490602516
2023-09-08 16:01:33.305,-0.2870962312704,0.1492261116544,0.1249118866304,0.0963684990976,0.0962264990976,0.0756704995456,48.359265,-4.557297,50.8549508840192,50.788002,0.620780496832,0.6197326218496,0.6080076224512,-0.0289842230016,-0.0448491083264,-10.0374190030848,-0.0302651175168,-0.0110719834624,0.0572908726528,33.0309012486272,-0.025554351808,-0.0454527339136,-10.0419403783552,-0.0306673674496,-0.0118008587264,0.0574272478975999,0.352133,0.025606,0.773927,0.006727,-0.04962,-10.091126,1.4333256606691696,1.7021860491968954,354.73548451680347,0.0015338749951999,0.0015438749951999,0.011766124992,-0.9987478748928,-0.0131757510656,-0.014262000448,0.0461023768704,0.0015338749951999,0.0015438749951999,0.011766124992,2.54216,0.0,0.0,0.01152773860864,0.0,0.0,0.17119926156288,0.0,0.0,0.0,215.584348679011
2023-09-08 16:01:33.320,-0.291486,0.152354,0.122186,0.09658,0.096438,0.075777,48.359265,-4.557297,50.852837,50.788002,0.621523,0.620471,0.608605,-0.006015,-0.048757,-10.065993,-0.032019,-0.014948,0.057841,33.031223,-0.001693,-0.049223,-10.070451,-0.032437,-0.015615,0.05792,0.3521997502848,0.0244281199744,0.7754292564096,-0.0079044374271999,-0.0508402552063999,-10.1066349411712,1.4060384292510402,1.6882201433529709,354.7852246276168,0.001535,0.001545,0.011768,-0.998773,-0.012926,-0.014157,0.045664,0.001535,0.001545,0.011768,2.54216,0.0,0.0,0.0141976,0.0,0.0,0.1684892,0.0,0.0,0.0,215.63408878982432
2023-09-08 16:01:33.345,-0.2993691048192,0.15752586176,0.1167272639744,0.0969337490944,0.0967917490944,0.0759532495488,48.359265,-4.557297,50.8497170079872,50.788002,0.6227742467968,0.6217153718144,0.6096062474368,-0.0184187182464,-0.0523744907392,-10.0960885479552,-0.034418993856,-0.0214504833536,0.0599884945024,33.031091750336,-0.0196660789888,-0.0524804916608,-10.1002121738112,-0.034646369344,-0.0220799834496,0.0602393690623999,0.352311,0.022465,0.777933,-0.03229,-0.052874,-10.132483,1.3555824625849373,1.6500827377465836,354.8755726786449,0.0015368749952,0.0015474999936,0.011768,-0.9988192498816,-0.012460376192,-0.0138545007744,0.0448665020416,0.0015368749952,0.0015474999936,0.011768,2.54216,0.0,0.0,0.01864733860864,0.0,0.0,0.16397246156288,0.0,0.0,0.0,215.72443684085243
2023-09-08 16:01:33.360,-0.304099,0.160629,0.113452,0.097146,0.097004,0.076059,48.359265,-4.557297,50.847845,50.788002,0.623525,0.622462,0.610207,-0.025861,-0.054545,-10.114146,-0.035859,-0.025352,0.061277,33.031013,-0.03045,-0.054435,-10.118069,-0.035972,-0.025959,0.061631,0.3513138707456,0.021319370112,0.782549269696,-0.0139617967999999,-0.052774624576,-10.1539338415232,1.325308675917107,1.627200138171538,354.92978187932835,0.001538,0.001549,0.011768,-0.998847,-0.012181,-0.013673,0.044388,0.001538,0.001549,0.011768,2.54216,0.0,0.0,0.0213172,0.0,0.0,0.1612624,0.0,0.0,0.0,215.77864604153584
2023-09-08 16:01:33.380,-0.304771,0.1633764999999999,0.1040804999999999,0.0955195,0.0953865,0.075112,48.359265,-4.557297,50.863292,50.788002,0.6093314999999999,0.6083415,0.5973555,-0.015406,-0.055132,-10.140923,-0.0372655,-0.0308195,0.0636424999999999,33.030466000000004,-0.0156495,-0.055246,-10.144678,-0.03745,-0.0315765,0.0639675,0.3499843707456,0.019791870112,0.788704269696,0.0104757031999999,-0.052642124576,-10.1825348415232,1.281162277802277,1.5811343314430195,355.0156109570389,0.0015305,0.001541,0.01176,-0.9988895,-0.0117685,-0.013297,0.0436305,0.0015305,0.001541,0.01176,2.54216,0.0,0.0,0.024877,0.0,0.0,0.157649,0.0,0.0,0.0,215.86447511924644
2023-09-08 16:01:33.385,-0.3049389978496,0.164063366208,0.1017376549888,0.0951128802048,0.094982130176,0.0748752530303999,48.359265,-4.557297,50.8671537005696,50.788002,0.6057831704191999,0.6048114201856,0.5941426661248,-0.012792283456,-0.0552787481215999,-10.1476171643136,-0.0376171204992,-0.032186357504,0.0642338674304,33.0303292517504,-0.0119494223616,-0.0554487474048,-10.1513301648512,-0.0378194952703999,-0.032980857024,0.0645516175232,0.349652,0.01941,0.790243,0.016585,-0.052609,-10.189685,1.2701258195420435,1.5696180271714717,355.0370679518135,0.001528625024,0.0015390000256,0.0117580000256,-0.998900124864,-0.01166537632,-0.0132030012032,0.043441127424,0.001528625024,0.0015390000256,0.0117580000256,2.542193769567744,0.0,0.0,0.0246790275340799,0.0,0.0,0.155911502240256,0.0,0.0,0.0,215.88593211402105
2023-09-08 16:01:33.400,-0.305443,0.166124,0.094709,0.093893,0.093769,0.074165,48.359265,-4.557297,50.878739,50.788002,0.595138,0.594221,0.584504,-0.004951,-0.055719,-10.1677,-0.038672,-0.036287,0.066008,33.029919,-0.000849,-0.056057,-10.171287,-0.038928,-0.037194,0.066304,0.355413899584,0.0180078690176,0.785212353536,0.0040963217152,-0.0565862669696,-10.1983572870016,1.2370158796874475,1.5350685247145015,355.1014400347495,0.001523,0.001533,0.011752,-0.998932,-0.011356,-0.012921,0.042873,0.001523,0.001533,0.011752,2.54229508,0.0,0.0,0.0240850999999999,0.0,0.0,0.15069892,0.0,0.0,0.0,215.950304196957
2023-09-08 16:01:33.425,-0.311783608768,0.1710558623744,0.0870452696192,0.094249249088,0.0941246240896,0.0743449995392,48.359265,-4.557297,50.8761565066112,50.788002,0.5963042470144,0.595380372032,0.5854502475776,0.0048820998272,-0.0606233624447999,-10.1925586863616,-0.0393863731712,-0.0436038562688,0.0694717411328,33.029568375897604,0.003644738496,-0.059028867392,-10.1958969369984,-0.0394623736319999,-0.0444827313408,0.0698733658623999,0.365017,0.015671,0.776828,-0.016718,-0.063215,-10.212811,1.1811884474429803,1.4640935595390467,355.2056822767403,0.0015248749952,0.0015348749952,0.011752,-0.9989844998656,-0.0108322513408,-0.0123328765055999,0.0419523773568,0.0015248749952,0.0015348749952,0.011752,2.542463929567744,0.0,0.0,0.02309522753408,0.0,0.0,0.142011342240256,0.0,0.0,0.0,216.0545464389478
2023-09-08 16:01:33.440,-0.315588,0.174015,0.082447,0.094463,0.094338,0.074453,48.359265,-4.557297,50.874607,50.788002,0.597004,0.596076,0.586018,0.010782,-0.063566,-10.207474,-0.039815,-0.047994,0.07155,33.029358,0.006341,-0.060812,-10.210663,-0.039783,-0.048856,0.072015,0.3650743752447999,0.016827879936,0.7783381314432,-0.0100755966592,-0.0625467471488,-10.2274019372544,1.147691759426552,1.4215082897195723,355.2682280489121,0.001526,0.001536,0.011752,-0.999016,-0.010518,-0.01198,0.0414,0.001526,0.001536,0.011752,2.54256524,0.0,0.0,0.0225013,0.0,0.0,0.13679876,0.0,0.0,0.0,216.1170922111196
2023-09-08 16:01:33.465,-0.3147181125210352,0.1748410272971294,0.0717161083535058,0.0945509041867294,0.0944253527175529,0.0745029263427764,48.35926492647078,-4.5572969264707766,50.87490766099501,50.788002,0.597771645093647,0.5968399686324707,0.586711601165553,-0.0072435788543999,-0.0600360090367999,-10.226048952448,-0.0401787490688,-0.0547908576,0.0753781152,33.0289742509824,-0.0065664669567999,-0.0598832523776,-10.2284573294464,-0.040245498816,-0.0556547325952,0.0759074900351999,0.36517,0.018756,0.780855,0.000995,-0.061433,-10.25172,1.0907542242958894,1.334956074366861,355.3813153042219,0.0015278749952,0.0015378749952,0.011752,-0.9990697498624,-0.0099798763776,-0.0112556268544,0.0404012525568,0.0015278749952,0.0015378749952,0.011752,2.542734089567744,0.0,0.0,0.02151142753408,0.0,0.0,0.128111182240256,0.0,0.0,0.0,216.23017946642943
2023-09-08 16:01:33.480,-0.3141961764705882,0.1753366470588235,0.0652775294117647,0.0946036470588235,0.0944777647058823,0.0745328823529411,48.35926488235294,-4.557296882352941,50.87508805882353,50.788002,0.5982322352941176,0.5972983529411765,0.5871277647058823,-0.018059,-0.057918,-10.237194,-0.040397,-0.058869,0.077675,33.028744,-0.014311,-0.059326,-10.239134,-0.040523,-0.059734,0.078243,0.365679416236,0.0173493924359999,0.7804291388079999,0.0010244610632,-0.0615777740552,-10.2491023950816,1.056591470000751,1.2830243906364525,355.4491681206144,0.001529,0.001539,0.011752,-0.999102,-0.009657,-0.010821,0.039802,0.001529,0.001539,0.011752,2.5428354,0.0,0.0,0.0209175,0.0,0.0,0.1228986,0.0,0.0,0.0,216.2980322828219
2023-09-08 16:01:34.105,-0.292448936050447,0.1959873802383058,-0.2029954210582588,0.0968012571279058,0.0966615880116705,0.0757810439898353,48.35926304411783,-4.557295044117836,50.88260460217148,50.788002,0.6174234097995294,0.616397615691294,0.6044678364596706,0.008469317596,-0.0699951472008,-10.1518072899936,-0.0802378162328,-0.0852615754224,0.1767824117263999,33.0278084532208,0.0051548183192,-0.0698933817304,-10.1478996343424,-0.07968315224,-0.0849429817935999,0.1771765836191999,0.386905,-0.041259,0.762685,0.002252,-0.06761,-10.140036,350.2746847473508,349.6473323065957,8.78012128856767,0.0015368124992,0.0015458359368,0.0117197734408,-0.9997572733704,0.0111574509935999,0.0167649346752,-0.0027878393888,0.0015368124992,0.0015458359368,0.0117197734408,2.547056649567744,0.0,0.0,-0.00382937246592,0.0,0.0,-0.094291377759744,0.0,0.0,0.0,-130.3710145492248
2023-09-08 16:01:34.120,-0.291927,0.196483,-0.209434,0.096854,0.096714,0.075811,48.359263,-4.557295,50.882785,50.788002,0.617884,0.616856,0.604884,0.009106,-0.070285,-10.149758,-0.081194,-0.085895,0.179161,33.027786,0.005622,-0.070147,-10.14571,-0.080623,-0.085548,0.179551,0.3938035294336,-0.0462041460992,0.7560339716223999,0.0039650073088,-0.0652126147712,-10.1142887651456,358.6559556041821,358.0081122252277,0.4600278137105379,0.001537,0.001546,0.011719,-0.999773,0.011657,0.017427,-0.00381,0.001537,0.001546,0.011719,2.54715796,0.0,0.0,-0.0044233,0.0,0.0,-0.09950396,0.0,0.0,0.0,-138.69110802408196
2023-09-08 16:01:34.145,-0.2836063963008,0.190114266304,-0.2165639817472,0.0972146240768,0.0970714990847999,0.0759941245312,48.359263,-4.557295,50.8883649857152,50.788002,0.6191346217984,0.618099746816,0.6058827474431999,-0.0030070939903999,-0.063428767552,-10.1122630959872,-0.076025263232,-0.0840431297408,0.1820247426687999,33.0273522511104,-0.0034573517568,-0.0624526446976,-10.1084550953728,-0.0753930133888,-0.0837873795072,0.1822222431616,0.405301,-0.054446,0.744949,0.00682,-0.061217,-10.071377,358.5412927189693,357.8974242245429,0.7285294730877123,0.0015394999936,0.0015478749952,0.0117177500032,-0.9997298751104,0.0126088725632,0.0184276224384,-0.0061218690816,0.0015394999936,0.0015478749952,0.0117177500032,2.547326809567744,0.0,0.0,-0.00541317246592,0.0,0.0,-0.108191537759744,0.0,0.0,0.0,-138.42260636470476
2023-09-08 16:01:34.160,-0.278614,0.186293,-0.220842,0.097431,0.097286,0.076104,48.359263,-4.557295,50.891713,50.788002,0.619885,0.618846,0.606482,-0.010275,-0.059315,-10.089766,-0.072924,-0.082932,0.183743,33.027092,-0.008905,-0.057836,-10.086102,-0.072255,-0.082731,0.183825,0.4058711899328,-0.0565097275552,0.7441378715392,0.0022523867615999,-0.0594958364064,-10.0426370648768,358.47249451818124,357.83101097075274,0.8896315684996292,0.001541,0.001549,0.011717,-0.999704,0.01318,0.019028,-0.007509,0.001541,0.001549,0.011717,2.54742812,0.0,0.0,-0.0060071,0.0,0.0,-0.11340412,0.0,0.0,0.0,-138.26150426929286
2023-09-08 16:01:34.305,-0.2211740878528,0.1461932676992,-0.2298039022943999,0.0971917501056,0.0970385938592,0.0760577812704,48.359263,-4.5572940937504,50.8895769696928,50.7870966566496,0.6231547485568,0.6221030610624,0.6097834672928,-0.03097954086144,-0.0464005807001599,-9.81784544502016,-0.0233202468940799,-0.05015693946624,0.19156139654912,33.02727759991809,-0.02988576573952,-0.04485053073152,-9.81292067057664,-0.02218579709952,-0.04929183975936,0.1916694965376,0.411383,-0.076459,0.736297,-0.041901,-0.042858,-9.764819,358.057515694276,357.34629784248006,2.487393504233838,0.0015391875008,0.0015471875008,0.0117006875071999,-0.9993496564064,0.0164325298144,0.0235193730175999,-0.0213012126624,0.0015391875008,0.0015471875008,0.0117006875071999,2.548407449567744,0.0,0.0,-0.01174837246592,0.0,0.0,-0.163792177759744,0.0,0.0,0.0,-136.66374233355864
2023-09-08 16:01:34.320,-0.215232,0.142045,-0.230731,0.097167,0.097013,0.076053,48.359263,-4.557294,50.889356,50.787003,0.623493,0.62244,0.610125,-0.0331213999999999,-0.0450645999999999,-9.7897156,-0.0181887999999999,-0.0467664,0.1923702,33.0272968,-0.0320562,-0.0435072,-9.7846604,-0.0170062,-0.0458326,0.192481,0.4079468603392,-0.0774876293888,0.739610139136,-0.0362377258368,-0.0385541066368,-9.7370321314432,358.0145866483127,357.29615486899814,2.652679999896685,0.001539,0.001547,0.011699,-0.999313,0.016769,0.023984,-0.022728,0.001539,0.001547,0.011699,2.54850876,0.0,0.0,-0.0123422999999999,0.0,0.0,-0.16900476,0.0,0.0,0.0,-136.4984558378958
2023-09-08 16:01:34.345,-0.2047107769343999,0.1335456467584,-0.2299753769344,0.0975207490944,0.0973636241024,0.0762354995328,48.359263,-4.557294,50.8956766088192,50.787003,0.6247548717696,0.6236949967872,0.6111331224192,-0.03669114086144,-0.04283798070016,-9.74283284502016,-0.0096364468940799,-0.04111553946624,0.19371819654912,33.02732879991808,-0.03567356573952,-0.04126833073152,-9.73756027057664,-0.00837359709952,-0.04006723975936,0.1938334965376,0.40222,-0.079202,0.745132,-0.026799,-0.031381,-9.690721,357.9951061331485,357.2546871547332,2.936400811745892,0.0015414999936,0.0015488749951999,0.0116971250048,-0.9992405001856,0.0168696247424,0.0243914989568,-0.0251917436928,0.0015414999936,0.0015488749951999,0.0116971250048,2.548677609567744,0.0,0.0,-0.0133321724659199,0.0,0.0,-0.177692337759744,0.0,0.0,0.0,-136.21473502604658
2023-09-08 16:01:34.360,-0.198398,0.128446,-0.229522,0.097733,0.097574,0.076345,48.359263,-4.557294,50.899469,50.787003,0.625512,0.624448,0.611738,-0.038833,-0.041502,-9.714703,-0.004505,-0.037725,0.194527,33.027348,-0.037844,-0.039925,-9.7093,-0.003194,-0.036608,0.194645,0.4021697497856,-0.0838583948672,0.7436087435008,-0.036119664768,-0.0304179958912,-9.6646400137216,357.9834177442576,357.229806356322,3.106634460978837,0.001543,0.00155,0.011696,-0.999197,0.01693,0.024636,-0.02667,0.001543,0.00155,0.011696,2.54877892,0.0,0.0,-0.0139261,0.0,0.0,-0.18290492,0.0,0.0,0.0,-136.04450137681366
2023-09-08 16:01:34.380,-0.1910045,0.1247805,-0.2221685,0.0961984999999999,0.0960465,0.0754519999999999,48.359263,-4.557294,50.878135500000006,50.7875025,0.6114505,0.6104575,0.598951,-0.0339454999999999,-0.0350675,-9.679629,0.0034409999999999,-0.030373,0.19462,33.026978,-0.0345825,-0.0354465,-9.6738415,0.004639,-0.0291935,0.194641,0.4021027497856,-0.0900668948672,0.7415777435008,-0.048547164768,-0.0291339958912,-9.6298655137216,357.98734250515423,357.21447973530223,3.3199466481060425,0.001536,0.0015425,0.0116864999999999,-0.9991415,0.016846,0.0248005,-0.0285285,0.001536,0.0015425,0.0116864999999999,2.548914,0.0,0.0,-0.014718,0.0,0.0,-0.189855,0.0,0.0,0.0,-135.83118918968643
