timestamp,north_vel,east_vel,down_vel,north_vel_dev,east_vel_dev,down_vel_dev,lat,long,alt,undulation,lat_dev,long_dev,alt_dev,accel_x,accel_y,accel_z,gyro_x,gyro_y,gyro_z,temp,delta_vel_x,delta_vel_y,delta_vel_z,delta_angle_x,delta_angle_y,delta_angle_z,mag_x,mag_y,mag_z,accel_x.1,accel_y.1,accel_z.1,roll,pitch,yaw,roll_dev,pitch_dev,yaw_dev,w_quat,x_quat,y_quat,z_quat,roll_dev.1,pitch_dev.1,yaw_dev.1,heave_period,surge_motion,sway_motion,heave_motion,surge_accel,sway_accel,heave_accel,surge_vel,sway_vel,heave_vel,wave_angle
2023-09-08 15:20:47.880,0.054975,-0.087045,-0.00428,0.0873,0.087309,0.06884,48.359257,-4.557293,48.240326,50.787003,0.58555,0.584681,0.573051,-0.066023,-0.002941,-9.789104,0.007526,-0.007082,0.075303,34.002548,-0.067786,-0.001495,-9.787786,0.007769,-0.006736,0.075047,-0.344594,-0.327662,0.809331,-0.056772,-0.00148,-9.786197,359.9857333509012,359.4617061514746,133.3347846740588,0.00142,0.00142,0.012265,-0.396064,-0.004264,0.001975,-0.918211,0.00142,0.00142,0.012265,3.968573,0.0,0.0,0.001264,0.0,0.0,0.001345,0.0,0.0,0.0,-5.816351163733685
2023-09-08 15:20:47.905,0.05436975154944,-0.08677800068352,-0.00412262540288,0.0872825000448,0.08729137504512,0.06883712500736,48.359257,-4.557293,48.23982925127168,50.787003,0.58606699867648,0.58519574868224,0.57355649870592,-0.0648555029888,-0.0032741241472,-9.7874796291584,0.0089059964672,-0.006182002304,0.074971750848,34.0027892493824,-0.0639635097856,-0.0034268700544,-9.7864497534208,0.0089508719744,-0.0060453767679999,0.0749901251456,-0.344594,-0.327662,0.809331,-0.056772,-0.00148,-9.786197,134.9977684774684,359.4547232462227,133.44339570805332,0.0014218749952,0.0014218749952,0.0122637500032,-0.3951933772288,-0.0043614997504,0.001903125184,-0.9185853740416,0.0014218749952,0.0014218749952,0.0122637500032,3.968573,0.0,0.0,0.001264,0.0,0.0,0.001345,0.0,0.0,0.0,-5.707740129739165
2023-09-08 15:20:47.920,0.0540066,-0.0866178,-0.0040282,0.087272,0.0872807999999999,0.0688354,48.359257,-4.557293,48.2395312,50.787003,0.5863772,0.5855046,0.5738598,-0.064155,-0.003474,-9.786505,0.009734,-0.005642,0.074773,34.002934,-0.06167,-0.004586,-9.785648,0.00966,-0.005631,0.074956,-0.34434619894272,-0.32673889606144,0.80961660121856,-0.05811915574784,-0.00112554848768,-9.78725622951936,0.0040680003454288,359.4505334744695,133.50856277332196,0.001423,0.001423,0.012263,-0.394671,-0.00442,0.00186,-0.91881,0.001423,0.001423,0.012263,3.968573,0.0,0.0,0.001264,0.0,0.0,0.001345,0.0,0.0,0.0,-5.642573064470525
2023-09-08 15:20:48.080,0.050133,-0.084909,-0.003021,0.08716,0.087168,0.068817,48.359257,-4.557293,48.236352,50.787003,0.589686,0.588799,0.577095,-0.0676702,-0.0061916,-9.8041794,0.0091708,1.0800000000000046e-05,0.0743402,34.002234800000004,-0.0663324,-0.0070028,-9.8037912,0.0091192,0.0001369999999999,0.0742039999999999,-0.34170299894272,-0.31689249606144,0.8126630012185599,-0.07248875574784,0.00265525151232,-9.79855462951936,0.097460120951753,359.43844406499227,134.1937057047394,0.001419,0.001418,0.012264,-0.389166,-0.004845,0.001124,-0.921154,0.001419,0.001418,0.012264,3.968573,0.0,0.0,0.001264,0.0,0.0,0.001345,0.0,0.0,0.0,-4.957430133053094
2023-09-08 15:20:48.105,0.0497280010368,-0.0847508754048,-0.0035134987391999,0.0874899991552,0.0874973741567999,0.0689844995712,48.359257,-4.557293624998399,48.2364876246528,50.787003,0.5907253723392,0.5898346223488,0.5779249978752,-0.06821944859392,-0.00661622391296,-9.80694101793024,0.00908280022528,0.00089404773888,0.07427257517312,34.00212555027968,-0.06706089813504,-0.00738042403328,-9.80662606774272,0.00903470021632,0.0010382476927999,0.0740865003008,-0.34129,-0.315354,0.813139,-0.074734,0.003246,-9.80032,0.1079165739443023,359.44159532479824,134.29977424502684,0.0014208749952,0.0014198749951999,0.0122627500032,-0.388312877184,-0.0048562499712,0.0010246252544,-0.9215139990784,0.0014208749952,0.0014198749951999,0.0122627500032,3.968573,0.0,0.0,0.001264,0.0,0.0,0.001345,0.0,0.0,0.0,-4.851361592765642
2023-09-08 15:20:48.120,0.049485,-0.084656,-0.003809,0.087688,0.087695,0.069085,48.359257,-4.557294,48.236569,50.787003,0.591349,0.590456,0.578423,-0.068549,-0.006871,-9.808598,0.00903,0.001424,0.074232,34.00206,-0.067498,-0.007607,-9.808327,0.008984,0.001579,0.074016,-0.346103145536,-0.3209786489984,0.8120117451904,-0.0751641268352,-0.0043950326015999,-9.8081346583424,0.114190488569573,359.44348609358946,134.36341580365715,0.001422,0.001421,0.012262,-0.387801,-0.004863,0.000965,-0.92173,0.001422,0.001421,0.012262,3.968573,0.0,0.0,0.001264,0.0,0.0,0.001345,0.0,0.0,0.0,-4.787720034135333
2023-09-08 15:20:48.145,0.0489993762432,-0.0845572502528,-0.0042658738303999,0.0880179991552,0.0880256241535999,0.0692512495744,48.359257,-4.557294,48.236711499635206,50.787003,0.5924008723072,0.5915034973184,0.5792598728576001,-0.0659408816768,-0.0057110029696,-9.8095654975232,0.0074137541376,0.001636499456,0.0741045003264,34.0025674987008,-0.0666186272512,-0.0067513771904,-9.8106382440832,0.0071515046912,0.0016989996928,0.0740116250112,-0.354125,-0.330353,0.810133,-0.075881,-0.01713,-9.821159,0.1204213886404757,359.44685221201854,134.46898300715725,0.0014238749952,0.0014228749951999,0.0122657499904,-0.386951002176,-0.0048573750144,0.0008987501696,-0.9220868740864,0.0014238749952,0.0014228749951999,0.0122657499904,3.968573,0.0,0.0,0.0012672499916799,0.0,0.0,0.0012650002048,0.0,0.0,0.0,-4.682152830635232
2023-09-08 15:20:48.160,0.048708,-0.084498,-0.00454,0.088216,0.088224,0.069351,48.359257,-4.557294,48.236797,50.787003,0.593032,0.592132,0.579762,-0.064376,-0.005015,-9.810146,0.006444,0.001764,0.074028,34.002872,-0.066091,-0.006238,-9.812025,0.006052,0.001771,0.074009,-0.3553298801408,-0.3267901097984,0.810247375488,-0.0734599896704,-0.0123236044928,-9.819653368576,0.1241599542048494,359.44887189686364,134.5323237616617,0.001425,0.001424,0.012268,-0.386441,-0.004854,0.000859,-0.922301,0.001425,0.001424,0.012268,3.968573,0.0,0.0,0.0012691999999999,0.0,0.0,0.001217,0.0,0.0,0.0,-4.61881207613078
2023-09-08 15:20:48.185,0.0483586258944,-0.084498,-0.0050049988096,0.0885466241536,0.0885539991552,0.069516624576,48.359257,-4.557294,48.2369388746368,50.787003,0.5940957472768,0.593191372288,0.5806051228416,-0.0696503614976,-0.0073068691328,-9.8086672537856,0.0046058797056,0.0023289985535999,0.0740636249088,34.0031988741632,-0.0695209912192,-0.0076429964032,-9.8099012554368,0.004314504448,0.0024472482688,0.0740477499008,-0.357338,-0.320852,0.810438,-0.069425,-0.004313,-9.817144,0.1264875892888072,359.45381364519574,134.63903687781854,0.0014262499968,0.0014258749952,0.0122673750016,-0.3855822521984,-0.0048233750784,0.0008196251008,-0.92266037408,0.0014262499968,0.0014258749952,0.0122673750016,3.968573,0.0,0.0,0.00127244999168,0.0,0.0,0.0011370002048,0.0,0.0,0.0,-4.51209895997394
2023-09-08 15:20:48.200,0.048149,-0.084498,-0.005284,0.088745,0.088752,0.069616,48.359257,-4.557294,48.237024,50.787003,0.594734,0.593827,0.581111,-0.072815,-0.008682,-9.80778,0.003503,0.002668,0.074085,34.003395,-0.071579,-0.008486,-9.808627,0.003272,0.002853,0.074071,-0.3547531139712,-0.3233311355776,0.8147670184704,-0.0654769831552,-0.0053540044416,-9.815126491392,0.1278841798731997,359.45677871443644,134.7030651846107,0.001427,0.001427,0.012267,-0.385067,-0.004805,0.000796,-0.922876,0.001427,0.001427,0.012267,3.968573,0.0,0.0,0.0012744,0.0,0.0,0.001089,0.0,0.0,0.0,-4.448070653181787
2023-09-08 15:20:48.220,0.0466655,-0.0846945,-0.00524,0.0876695,0.0876764999999999,0.0690939999999999,48.359257,-4.557294,48.2355655,50.787003,0.5935085,0.5926055,0.5805005000000001,-0.0674445,-0.010179,-9.8116545,0.002178,0.003012,0.0737984999999999,34.0033815,-0.06618,-0.009936,-9.8116565,0.001948,0.0030724999999999,0.0737935,-0.3513066139712,-0.3266366355776,0.8205390184704,-0.0602129831551999,-0.0067420044416,-9.812436491392,0.1272539262985558,359.4609326584512,134.78860778342374,0.001421,0.001421,0.0122659999999999,-0.384378,-0.00477,0.0007835,-0.923163,0.001421,0.001421,0.0122659999999999,3.968573,0.0,0.0,0.001277,0.0,0.0,0.001025,0.0,0.0,0.0,-4.362528054368738
2023-09-08 15:20:48.225,0.0462946297472,-0.0847436243711999,-0.0052290001408,0.0874006284416,0.0874076284416,0.0689635016704,48.359257,-4.557294,48.2352008796672,50.787003,0.5932021289216,0.5923001289088,0.5803478769536,-0.0661018921856,-0.0105532452096,-9.8126231126016,0.0018467542399999,0.0030979988992,0.0737268759168,34.0033781250432,-0.0648302672768,-0.01029849536,-9.8124138653056,0.0016170042368,0.0031273742976,0.073724125888,-0.350445,-0.327463,0.821982,-0.058897,-0.007089,-9.811764,0.1270963649217062,359.4619711311622,134.80999315939067,0.0014195000192,0.0014195000192,0.0122657500032,-0.3842057522048,-0.004761250112,0.00078037504,-0.9232347490816,0.0014195000192,0.0014195000192,0.0122657500032,3.968573,0.0,0.0,0.0012774944381155,0.0,0.0,0.00102969993984,0.0,0.0,0.0,-4.341142678401809
2023-09-08 15:20:48.240,0.045182,-0.084891,-0.005196,0.086594,0.086601,0.068572,48.359257,-4.557294,48.234107,50.787003,0.592283,0.591384,0.57989,-0.062074,-0.011676,-9.815529,0.000853,0.003356,0.073512,34.003368,-0.060781,-0.011386,-9.814686,0.000624,0.003292,0.073516,-0.3507765014144,-0.3238989847936,0.8144260927616,-0.0665717827456,-0.0089778830592,-9.812437127872,0.1266236727239119,359.4650866024659,134.87415038223676,0.001415,0.001415,0.012265,-0.383689,-0.004735,0.000771,-0.92345,0.001415,0.001415,0.012265,3.968573,0.0,0.0,0.0012789777777777,0.0,0.0,0.0010438,0.0,0.0,0.0,-4.276985455555717
2023-09-08 15:20:48.265,0.0448901257472,-0.0850572495744,-0.0056322488832,0.0869233741568,0.0869297491584,0.0687394995712,48.359257,-4.557294,48.2342626246016,50.787003,0.59331424736,0.5924108723711999,0.5807174978816,-0.0684483586816,-0.0077891349504,-9.8146552522368,-0.0010307451776,0.003427874816,0.0732701256191999,34.0033611250176,-0.0695897274496,-0.0078335090944,-9.814723499904,-0.0012153702912,0.003351374848,0.0733053755392,-0.351329,-0.317959,0.801833,-0.079363,-0.012126,-9.813559,0.120965728981368,359.47078035597895,134.97968177596636,0.0014168749952,0.0014168749952,0.0122637500032,-0.3828383771776,-0.0046706251647999,0.000792874944,-0.923803124096,0.0014168749952,0.0014168749952,0.0122637500032,3.968573,0.0,0.0,0.0012814499936711,0.0,0.0,0.00106729993984,0.0,0.0,0.0,-4.171454061826125
2023-09-08 15:20:48.280,0.044715,-0.085157,-0.005894,0.087121,0.087127,0.06884,48.359257,-4.557294,48.234356,50.787003,0.593933,0.593027,0.581214,-0.072273,-0.005457,-9.814131,-0.002161,0.003471,0.073125,34.003357,-0.074875,-0.005702,-9.814746,-0.002319,0.003387,0.073179,-0.3499306190336,-0.3215556403456,0.8062602688896,-0.0673880739072,-0.0124826265216,-9.8116307417728,0.1175709395608449,359.47419663140846,135.04300104446182,0.001418,0.001418,0.012263,-0.382328,-0.004632,0.000806,-0.924015,0.001418,0.001418,0.012263,3.968573,0.0,0.0,0.0012829333333333,0.0,0.0,0.0010814,0.0,0.0,0.0,-4.108134793330663
2023-09-08 15:20:48.305,0.0444901791469714,-0.0849564201563428,-0.0058160984137142,0.0870909554340571,0.0870970447195428,0.0688211607625142,48.359257,-4.557294,48.234018099079314,50.787003,0.5934880457819429,0.5925840993481143,0.5807973939236571,-0.0675530120832,-0.0080363683968,-9.812509129152,-0.0036341212288,0.0034622500224,0.0731537499264,34.0033426250368,-0.067150019776,-0.0084163680512,-9.8122947562752,-0.0037764962687999,0.0035632495488,0.073079000256,-0.3476,-0.32755,0.813639,-0.04743,-0.013077,-9.808417,0.1085826871597151,359.4803201021678,135.14889053589664,0.0014198749951999,0.0014192499968,0.0122623750016,-0.3814742521856,-0.0045532502016,0.0008541248768,-0.9243674990976,0.0014198749951999,0.0014192499968,0.0122623750016,3.968573,0.0,0.0,0.0012854055492266,0.0,0.0,0.00110489993984,0.0,0.0,0.0,-4.00224530189584
2023-09-08 15:20:48.320,0.0443552857142857,-0.0848360714285714,-0.0057693571428571,0.0870729285714285,0.0870790714285714,0.0688098571428571,48.359257,-4.557294,48.23381535714286,50.787003,0.5932210714285715,0.5923183571428571,0.5805474285714286,-0.064721,-0.009584,-9.811536,-0.004518,0.003457,0.073171,34.003334,-0.062515,-0.010045,-9.810824,-0.004651,0.003669,0.073019,-0.3480495403795692,-0.3273511337668923,0.8139116550094769,-0.0483312153836307,-0.0127748352492307,-9.808081546645662,0.1031896989030612,359.4839942097052,135.212424664482,0.001421,0.00142,0.012262,-0.380962,-0.004506,0.000883,-0.924579,0.001421,0.00142,0.012262,3.968573,0.0,0.0,0.0012868888888888,0.0,0.0,0.001119,0.0,0.0,0.0,-3.93871117331048
2023-09-08 15:20:48.825,0.0398138934326857,-0.0807843487277714,-0.0041957412708571,0.0864660268626285,0.0864739732909714,0.0684293036196571,48.359257,-4.557294,48.22698974193646,50.787003,0.5842329743533714,0.5833717422052571,0.5721319653522285,-0.0734662392763076,-0.007249346449723,-9.794579655995078,0.0070746619923692,-0.002982720337723,0.0698350869612307,34.005367595896125,-0.0741008639163076,-0.0082075771559384,-9.793713242553109,0.0072757388731076,-0.0029775760807384,0.0698287600196923,-0.363184,-0.320656,0.823091,-0.078672,-0.002602,-9.796788,0.0062039331864285,359.4700278142979,137.27956247077742,0.0014161442313846,0.0014151442313846,0.0122639423074461,-0.3642241655827692,-0.0043273077149538,0.0016337018279384,-0.931294527995077,0.0014161442313846,0.0014151442313846,0.0122639423074461,3.968573,0.0,0.0,0.0013368277714488,0.0,0.0,0.00159369993984,0.0,0.0,0.0,-1.87157336701506
2023-09-08 15:20:48.840,0.039679,-0.080664,-0.004149,0.086448,0.086456,0.068418,48.359257,-4.557294,48.226787,50.787003,0.583966,0.583106,0.571882,-0.073726,-0.00718,-9.794076,0.007419,-0.003174,0.069736,34.005428,-0.074445,-0.008153,-9.793205,0.00763,-0.003175,0.069734,-0.3633111255424,-0.3206346249088,0.8200639870848,-0.07097509216,-0.0097019052928,-9.7982062560512,0.0033231552117587,359.4696129690474,137.340962873393,0.001416,0.001415,0.012264,-0.363727,-0.004322,0.001656,-0.931494,0.001416,0.001415,0.012264,3.968573,0.0,0.0,0.0013383111111111,0.0,0.0,0.0016078,0.0,0.0,0.0,-1.8101729643994704
2023-09-08 15:20:48.865,0.0395733752704,-0.0802708760064,-0.0038296258176,0.0867773741568,0.0867853741568,0.0685861245696,48.359257,-4.557294,48.2268957497216,50.787003,0.5849859973888,0.5841222473984,0.572700747904,-0.06877288768,-0.0107937407488,-9.7943422493184,0.0073821250944,-0.002764626048,0.0696066253312,34.0054661249024,-0.0684100154496,-0.0110554925696,-9.7944031219328,0.0074200005376,-0.0025956264832,0.0696696251648,-0.363523,-0.320599,0.815019,-0.058147,-0.021535,-9.80057,0.0114877828908725,359.46746438281605,137.44083632338004,0.0014172499968,0.0014168749952,0.0122627500032,-0.36291450208,-0.0043669998848,0.0015928751616,-0.9318102491904,0.0014172499968,0.0014168749952,0.0122627500032,3.968573,0.0,0.0,0.0013407833270044,0.0,0.0,0.00163129993984,0.0,0.0,0.0,-1.7102995144124409
2023-09-08 15:20:48.880,0.03951,-0.080035,-0.003638,0.086975,0.086983,0.068687,48.359257,-4.557294,48.226961,50.787003,0.585598,0.584732,0.573192,-0.065801,-0.012962,-9.794502,0.00736,-0.002519,0.069529,34.005489,-0.064789,-0.012797,-9.795122,0.007294,-0.002248,0.069631,-0.3649281309952,-0.3146634746752,0.8106003561472,-0.05708762048,-0.0159557261952,-9.7986083666304,0.0163865929407415,359.4661752222766,137.50076080245498,0.001418,0.001418,0.012262,-0.362427,-0.004394,0.001555,-0.932,0.001418,0.001418,0.012262,3.968573,0.0,0.0,0.0013422666666666,0.0,0.0,0.0016454,0.0,0.0,0.0,-1.650375035337504
2023-09-08 15:20:48.905,0.0390715636224,-0.0798023964288,-0.0034450838272,0.0870361456768,0.0870440415104,0.0687226249088,48.359257,-4.5572941041664,48.2268487086208,50.787003,0.5862296650496,0.5853609567232,0.5737686651904,-0.0658403748992,-0.0115570035968,-9.793186378368,0.0074574997504,-0.002390875328,0.0696564996736,34.0052365006464,-0.0657508725376,-0.0111201292927999,-9.79251263168,0.0073277499136,-0.0023173748224,0.06967787488,-0.36727,-0.304771,0.803236,-0.055322,-0.006657,-9.795339,0.0245870303903777,359.4638117774221,137.60059844267153,0.0014198749951999,0.0014198749951999,0.0122613750016,-0.36161450208,-0.0044402498816,0.0014918751616,-0.932315624192,0.0014198749951999,0.0014198749951999,0.0122613750016,3.968573,0.0,0.0,0.00134473888256,0.0,0.0,0.00166889993984,0.0,0.0,0.0,-1.550537395120955
2023-09-08 15:20:48.920,0.0388085,-0.0796628333333333,-0.0033293333333333,0.0870728333333333,0.0870806666666666,0.068744,48.359257,-4.557294166666667,48.226781333333335,50.787003,0.5866086666666667,0.5857383333333334,0.5741146666666667,-0.065864,-0.010714,-9.792397,0.007516,-0.002314,0.069733,34.005085,-0.066328,-0.010114,-9.790947,0.007348,-0.002359,0.069706,-0.36720557472512,-0.30501572604416,0.80474868145408,-0.05534592510208,-0.00705360169216,-9.79554240086784,0.0295073264492373,359.4623937008287,137.66050143573747,0.001421,0.001421,0.012261,-0.361127,-0.004468,0.001454,-0.932505,0.001421,0.001421,0.012261,3.968573,0.0,0.0,0.0013462222222222,0.0,0.0,0.001683,0.0,0.0,0.0,-1.490634402055008
2023-09-08 15:20:49.105,0.0355640636224,-0.0779415630954666,-0.0019017504938666,0.0875253123434666,0.0875323748437333,0.0690076249088,48.359257,-4.557294937499734,48.22595037528747,50.787003,0.5912829983829333,0.5903926233898666,0.5783819985237334,-0.0615997514752,-0.01328179911168,-9.80081264708864,0.00354220137472,-0.00030952569344,0.07140169942272,34.00412485033216,-0.06282410121216,-0.0142709485619199,-9.80129959641856,0.0035638263091199,-0.0002250257382399,0.07133122443776,-0.366411,-0.308034,0.823405,-0.055641,-0.011945,-9.798051,0.06496337494054,359.4603267562979,138.41377022080007,0.001421,0.001421,0.01226007500032,-0.35498777712384,-0.00460397495296,0.00114135010816,-0.93485727418624,0.001421,0.001421,0.01226007500032,3.968573,0.0,0.0,0.0013645166603377,0.0,0.0,0.00185689993984,0.0,0.0,0.0,-0.7373656169924061
2023-09-08 15:20:49.120,0.035301,-0.077802,-0.001786,0.087562,0.087569,0.069029,48.359257,-4.557295,48.225883,50.787003,0.591662,0.59077,0.578728,-0.061254,-0.01349,-9.801495,0.00322,-0.000147,0.071537,34.004047,-0.06254,-0.014608,-9.802139,0.003257,-5.2e-05,0.071463,-0.369118511552,-0.307870874304,0.8160395935744,-0.0526199871104,-0.0094579893888,-9.8008263868416,0.0678382029434894,359.46015916542774,138.4748463499569,0.001421,0.001421,0.01226,-0.35449,-0.004615,0.001116,-0.935048,0.001421,0.001421,0.01226,3.968573,0.0,0.0,0.001366,0.0,0.0,0.001871,0.0,0.0,0.0,-0.6762894878355894
2023-09-08 15:20:49.145,0.0349303759488,-0.0775795005696,-0.0020366243584,0.0878913741568,0.0878983741567999,0.0691952495744,48.359257,-4.557295,48.2259504998272,50.787003,0.5927126223104,0.5918162473216,0.5795642478592,-0.0626727463679999,-0.0117018795776,-9.806063738304,0.0030093755392,0.0002342490239999,0.0718294992512,34.0036207510912,-0.0627093745664,-0.0117561323008,-9.8066083635584,0.003003875648,0.000235499264,0.0717461242752,-0.373631,-0.307599,0.803764,-0.047585,-0.005313,-9.805452,0.0695928816990884,359.4616989855602,138.57744134250368,0.0014228749951999,0.0014222499968,0.012263124992,-0.353652502144,-0.004608750016,0.0010928750592,-0.9353648741888,0.0014228749951999,0.0014222499968,0.012263124992,3.968573,0.0,0.0,0.0014153748736,0.0,0.0,0.00174843781376,0.0,0.0,0.0,-0.5736944952888052
2023-09-08 15:20:49.160,0.034708,-0.077446,-0.002187,0.088089,0.088096,0.069295,48.359257,-4.557295,48.225991,50.787003,0.593343,0.592444,0.580066,-0.063524,-0.010629,-9.808805,0.002883,0.000463,0.072005,34.003365,-0.062811,-0.010045,-9.80929,0.002852,0.000408,0.071916,-0.3712688649216,-0.3018554754944,0.8035806242176,-0.0561384114944,-0.0077512604032,-9.8063460038144,0.0706456961396305,359.4626228839468,138.6389987582619,0.001424,0.001423,0.012265,-0.35315,-0.004605,0.001079,-0.935555,0.001424,0.001423,0.012265,3.968573,0.0,0.0,0.001445,0.0,0.0,0.0016749,0.0,0.0,0.0,-0.5121370795305893
2023-09-08 15:20:49.185,0.0342489733973333,-0.0776016246016,-0.0023160274474666,0.0880125418624,0.0880196807509333,0.0692496528938666,48.359257,-4.557295,48.2250272524672,50.787003,0.5923773080277333,0.5914826830165333,0.5792135021824,-0.06302400128,-0.0092496285312,-9.80921124896,0.0029936247168,0.0003023754112,0.0718068755072,34.002365627558405,-0.0632872487808,-0.0092287520896,-9.8102568725248,0.0029857496576,0.0001292507136,0.0717897503232,-0.367332,-0.292283,0.803275,-0.070394,-0.011815,-9.807836,0.0726868530594089,359.46351812820984,138.7418444192023,0.0014258749952,0.0014248749952,0.0122643750016,-0.3523100021504,-0.004605,0.0010558750592,-0.9358712491904,0.0014258749952,0.0014248749952,0.0122643750016,3.968573,0.0,0.0,0.0014943748736,0.0,0.0,0.00155233781376,0.0,0.0,0.0,-0.4092914185901861
2023-09-08 15:20:49.200,0.0339735555555555,-0.077695,-0.0023934444444444,0.0879666666666666,0.0879738888888888,0.0692224444444444,48.359257,-4.557295,48.224449,50.787003,0.5917978888888888,0.5909058888888888,0.5787019999999999,-0.062724,-0.008422,-9.809455,0.00306,0.000206,0.071688,34.001766,-0.063573,-0.008739,-9.810837,0.003066,-3.8e-05,0.071714,-0.3680982116024889,-0.2926416681969778,0.8040139614862222,-0.0699976233088,-0.0114305816931555,-9.8072783726208,0.0739115555718761,359.4640552784346,138.80355223702344,0.001427,0.001426,0.012264,-0.351806,-0.004605,0.001042,-0.936061,0.001427,0.001426,0.012264,3.968573,0.0,0.0,0.001524,0.0,0.0,0.0014788,0.0,0.0,0.0,-0.3475836007690418
2023-09-08 15:20:49.520,0.028098,-0.079687,-0.004045,0.086988,0.086997,0.068642,48.359257,-4.557295,48.212113,50.787003,0.579437,0.578601,0.56779,-0.0671791111111111,-0.0124388888888888,-9.798240777777778,-1.1999999999999858e-05,0.0005126666666666,0.0698631111111111,33.99806644444445,-0.0669285555555555,-0.0112447777777777,-9.797648555555554,-3.8888888888888654e-05,0.0006651111111111,0.0697957777777777,-0.3844439893802666,-0.3002932237525333,0.8197784059306666,-0.0615416233087999,-0.0032296928042666,-9.7953823726208,0.0944871066147963,359.4787739275717,140.11152575653898,0.0014225555555555,0.0014224444444444,0.0122648888888888,-0.3410957777777778,-0.004557,0.0007771111111111,-0.9400085555555556,0.0014225555555555,0.0014224444444444,0.0122648888888888,3.968573,0.0,0.0,0.002156,0.0,0.0,-9e-05,0.0,0.0,0.0,0.9603899187465004
2023-09-08 15:20:49.545,0.0278655005952,-0.0795970002304,-0.0038281255552,0.0873186241535999,0.0873276241536,0.0688094995712,48.359257,-4.557295,48.2122342496896,50.787003,0.580461997376,0.5796216223872,0.5686087479040001,-0.0675271657756444,-0.0127527075299555,-9.79736466890951,-0.0002519993856,0.0005366249386666,0.0697205420316444,33.99777741740658,-0.0671907076622222,-0.0114405411655111,-9.796618210971022,-0.0002814577123555,0.0007200415260444,0.0696459170503111,-0.385721,-0.300891,0.82101,-0.060881,-0.002589,-9.794453,0.0960945674249143,359.4799238190919,140.21371092615644,0.0014222083342222,0.0014221666673777,0.0122649583331555,-0.3402590438087111,-0.0045532500096,0.0007564167196444,-0.9403169575438222,0.0014222083342222,0.0014221666673777,0.0122649583331555,3.968573,0.0,0.0,0.00213137506304,0.0,0.0,-0.0002144996812799,0.0,0.0,0.0,1.0625750883639569
2023-09-08 15:20:49.560,0.027726,-0.079543,-0.003698,0.087517,0.087526,0.06891,48.359257,-4.557295,48.212307,50.787003,0.581077,0.580234,0.5691,-0.067736,-0.012941,-9.796839,-0.000396,0.000551,0.069635,33.997604,-0.067348,-0.011558,-9.796,-0.000427,0.000753,0.069556,-0.379951600384,-0.2999568710144,0.8159651034752,-0.0652640187008,-0.006890268352,-9.7914353621248,0.0970590504951614,359.4806137587139,140.27502244647843,0.001422,0.001422,0.012265,-0.339757,-0.004551,0.000744,-0.940502,0.001422,0.001422,0.012265,3.968573,0.0,0.0,0.0021165999999999,0.0,0.0,-0.0002892,0.0,0.0,0.0,1.1238866086859505
2023-09-08 15:20:49.585,0.0274664173312,-0.079573208256,-0.0033017510143999,0.0873245004928,0.08733329216,0.0688208335616,48.359257,-4.5572952083328,48.2112220027776,50.7872111244672,0.581331166016,0.5804867076864,0.5694383324672,-0.07097036672,-0.0092997593216,-9.7949302548864,-0.0015184971264,0.0005622499712,0.0696749998976,33.9977689995776,-0.0704504920576,-0.008929881728,-9.7946337534976,-0.0016501218688,0.0005673754752,0.0696266248192,-0.370336,-0.2984,0.807557,-0.072569,-0.014059,-9.786406,0.0913652969820951,359.4821535788464,140.37518237462967,0.0014238749952,0.0014238749952,0.0122637500032,-0.3389345021056,-0.0045216250752,0.0007821249024,-0.9407982492416,0.0014238749952,0.0014238749952,0.0122637500032,3.968573,0.0,0.0,0.0020919750630399,0.0,0.0,-0.00041369968128,0.0,0.0,0.0,1.2240465368371929
2023-09-08 15:20:49.600,0.0273106666666666,-0.0795913333333333,-0.003064,0.087209,0.0872176666666666,0.0687673333333333,48.359257,-4.557295333333333,48.210571,50.787336,0.5814836666666666,0.5806383333333334,0.5696413333333333,-0.072911,-0.007115,-9.793785,-0.002192,0.000569,0.069699,33.997868,-0.072312,-0.007353,-9.793814,-0.002384,0.000456,0.069669,-0.37332195024,-0.2970963069376,0.8078153761024,-0.0701583022143999,-0.013016495552,-9.7888335728576,0.0879490215525813,359.483077477233,140.43527874177653,0.001425,0.001425,0.012263,-0.338441,-0.004504,0.000805,-0.940976,0.001425,0.001425,0.012263,3.968573,0.0,0.0,0.0020772,0.0,0.0,-0.0004883999999999,0.0,0.0,0.0,1.2841429039840475
2023-09-08 15:20:49.665,0.0266357506645333,-0.0796698749226666,-0.0020337510143999,0.0867085004928,0.0867166254933333,0.0685355002282666,48.359257,-4.5572958749994665,48.2077500027776,50.7878771244672,0.5821444993493333,0.5812953743530667,0.5705209991338667,-0.0667530685632,-0.0096280600256,-9.7931203756544,-0.0052047470336,0.0011588744192,0.0691245630656,33.998592749286395,-0.0655024442048,-0.010168309728,-9.7918713144128,-0.0054178720128,0.0011563743104,0.0691091880512,-0.386261,-0.291447,0.808935,-0.059712,-0.008499,-9.799353,0.0639277896434193,359.48931554908535,140.69271558762472,0.0014185000064,0.0014185000064,0.0122605625024,-0.3363276895808,-0.0043845626176,0.0009731873344,-0.9417340617536,0.0014185000064,0.0014185000064,0.0122605625024,3.968573,0.0,0.0,0.0020131750630399,0.0,0.0,-0.0008120996812799,0.0,0.0,0.0,1.5415797498322377
2023-09-08 15:20:49.680,0.02648,-0.079688,-0.001796,0.086593,0.086601,0.068482,48.359257,-4.557296,48.207099,50.788002,0.582297,0.581447,0.570724,-0.065332,-0.010208,-9.792967,-0.0059,0.001295,0.068992,33.99876,-0.063931,-0.010818,-9.791423,-0.006118,0.001318,0.06898,-0.3824213586176,-0.2928221308672,0.8146803995135999,-0.0646972712704,-0.0078254971263999,-9.7997160015488,0.0583843993238308,359.49075511168775,140.75212440248387,0.001417,0.001417,0.01226,-0.33584,-0.004357,0.001012,-0.941909,0.001417,0.001417,0.01226,3.968573,0.0,0.0,0.0019984,0.0,0.0,-0.0008867999999999,0.0,0.0,0.0,1.6009885646913915
2023-09-08 15:20:49.705,0.0265368748544,-0.0794961254912,-0.0015385006592,0.0869223741568,0.0869303741568,0.0686501245696,48.359257,-4.557296,48.20714587488,50.788002,0.5833176223872,0.5824638723968,0.5715421229056,-0.069016365568,-0.012545494016,-9.792523251136,-0.0068362476032,0.0011412503936,0.0688770002944,33.9986862501888,-0.0686259879808,-0.0123161211648,-9.7922736228224,-0.0069217479424,0.0011130005248,0.0689006252031999,-0.376022,-0.295114,0.824256,-0.073006,-0.006703,-9.800321,0.0455645014768011,359.49315436631275,140.85153232545414,0.0014188749952,0.0014182499967999,0.0122593750016,-0.3350231270912,-0.004300750144,0.0011069997568,-0.942199624256,0.0014188749952,0.0014182499967999,0.0122593750016,3.968573,0.0,0.0,0.00197377506304,0.0,0.0,-0.0010112996812799,0.0,0.0,0.0,1.7003964876616635
2023-09-08 15:20:49.720,0.026571,-0.079381,-0.001384,0.08712,0.087128,0.068751,48.359257,-4.557296,48.207174,50.788002,0.58393,0.583074,0.572033,-0.071227,-0.013948,-9.792257,-0.007398,0.001049,0.068808,33.998642,-0.071443,-0.013215,-9.792784,-0.007404,0.00099,0.068853,-0.3775512565248,-0.2903263545728,0.8168062182144,-0.0686188562816,-0.004962992576,-9.8007942520192,0.0378725102581474,359.4945939289151,140.9111774864122,0.00142,0.001419,0.012259,-0.334533,-0.004267,0.001164,-0.942374,0.00142,0.001419,0.012259,3.968573,0.0,0.0,0.001959,0.0,0.0,-0.001086,0.0,0.0,0.0,1.7600416486197332
2023-09-08 15:20:49.745,0.0265135001472,-0.0790210009216,-0.0012733752832,0.0874499991552,0.0874579991552,0.0689178745728,48.359257,-4.557296,48.207217749888,50.788002,0.5849631223552,0.5841033723648,0.572857997888,-0.0659588884864,-0.0117911305216,-9.7942344949376,-0.008166748032,0.0008371255424,0.0689004997632,33.9991476237056,-0.0662723882368,-0.0111443803007999,-9.794052746752,-0.0082902477312,0.0008425003776,0.0688861249151999,-0.3801,-0.282347,0.80439,-0.061307,-0.002063,-9.801583,0.0229756457208168,359.4967067053759,141.00943949672578,0.0014218749952,0.0014208749952,0.0122627499904,-0.3337248770688,-0.004207625152,0.001276499712,-0.9426602492672,0.0014218749952,0.0014208749952,0.0122627499904,3.968573,0.0,0.0,0.0019703749708799,0.0,0.0,-0.00077150080512,0.0,0.0,0.0,1.8583036589332949
2023-09-08 15:20:49.760,0.026479,-0.078805,-0.001207,0.087648,0.087656,0.069018,48.359257,-4.557296,48.207244,50.788002,0.585583,0.584721,0.573353,-0.062798,-0.010497,-9.795421,-0.008628,0.00071,0.068956,33.999451,-0.06317,-0.009902,-9.794814,-0.008822,0.000754,0.068906,-0.3798329988608,-0.2858997651584,0.8104316507776,-0.063761385472,-0.0057035155328,-9.80756427552,0.0140374659807051,359.4979743799064,141.06839710539612,0.001423,0.001422,0.012265,-0.33324,-0.004172,0.001344,-0.942832,0.001423,0.001422,0.012265,3.968573,0.0,0.0,0.0019771999999999,0.0,0.0,-0.0005828,0.0,0.0,0.0,1.9172612676036351
2023-09-08 15:20:49.785,0.0265347811072,-0.0784685946112,-0.001100750272,0.0875798751744,0.0875877189248,0.068989875072,48.359257,-4.557296,48.206725563827206,50.7878459066496,0.5860167488896,0.5851525613952,0.5738051863424,-0.0672704885504,-0.0112819979904,-9.801574109248,-0.0090417489408,0.00038187584,0.0687610004992,33.9992435005312,-0.0673331143424,-0.0106969979648,-9.8037246021888,-0.009137624192,0.0003796259583999,0.0686241257216,-0.379388,-0.291821,0.820501,-0.067852,-0.011771,-9.817533,224.99788421580345,359.49922772187466,141.16622939846337,0.0014242499968,0.0014238749952,0.0122637500032,-0.3324356270592,-0.0041170001408,0.0014652496896,-0.9431157492736,0.0014242499968,0.0014238749952,0.0122637500032,3.968573,0.0,0.0,0.00198857497088,0.0,0.0,-0.0002683008051199,0.0,0.0,0.0,2.0150935606708917
2023-09-08 15:20:49.800,0.0265682499999999,-0.07826675,-0.001037,0.087539,0.08754675,0.0689729999999999,48.359257,-4.557296,48.2064145,50.78775225,0.5862769999999999,0.5854115,0.5740765,-0.069954,-0.011753,-9.805266,-0.00929,0.000185,0.068644,33.999119,-0.069831,-0.011174,-9.809071,-0.009327,0.000155,0.068455,-0.3790308734762667,-0.2922218767104,0.8194568705450667,-0.0679463754026666,-0.011853500352,-9.81787050144,359.98911380189253,359.49997973218933,141.22492917502584,0.001425,0.001425,0.012263,-0.331953,-0.004084,0.001538,-0.943286,0.001425,0.001425,0.012263,3.968573,0.0,0.0,0.0019954,0.0,0.0,-7.959999999999998e-05,0.0,0.0,0.0,2.0737933372333544
2023-09-08 15:20:49.905,0.0268025311072,-0.0768538446112,-0.000590750272,0.0872528751744,0.0872599689248,0.068854875072,48.359257,-4.557296,48.2042370638272,50.7870966566496,0.5880987488896,0.5872240613952,0.5759756863423999,-0.0702243748352,-0.0065345031808,-9.8152035876928,-0.004276253056,-0.0023507484544,0.0684300626304,33.9994595935424,-0.0710076555328,-0.0075101584832,-9.8165017142208,-0.0041957843776,-0.0024890296383999,0.0684143125248,-0.376531,-0.295028,0.812148,-0.068607,-0.012431,-9.820233,359.9386792227172,359.4946655518786,141.63482293182227,0.0014206250026666,0.0014197500032,0.0122595000021333,-0.3285781270570667,-0.0039895000576,0.0019544997461333,-0.9444654992810666,0.0014206250026666,0.0014197500032,0.0122595000021333,3.968573,0.0,0.0,0.00204317497088,0.0,0.0,0.00124129919488,0.0,0.0,0.0,2.48368709402979
2023-09-08 15:20:49.920,0.026836,-0.076652,-0.000527,0.087212,0.087219,0.068838,48.359257,-4.557296,48.203926,50.787003,0.588359,0.587483,0.576247,-0.0702629999999999,-0.005789,-9.81662325,-0.00356,-0.002713,0.0683995,33.99950825,-0.07117575,-0.00698675,-9.81756325,-0.00346275,-0.0028667499999999,0.0684085,-0.3814405209472,-0.2924509890048,0.8095353638528,-0.0695778791424,-0.0103099909504,-9.8190108697856,359.93147424770234,359.49390637956094,141.6933794683248,0.00142,0.001419,0.012259,-0.328096,-0.003976,0.002014,-0.944634,0.00142,0.001419,0.012259,3.968573,0.0,0.0,0.00205,0.0,0.0,0.00143,0.0,0.0,0.0,2.542243630532312
2023-09-08 15:20:49.945,0.0271097492992,-0.0761688762368,-0.0007351244672,0.0875419991552,0.0875489991552,0.0690054995712,48.359257,-4.557296,48.2039191250176,50.787003,0.5893983723392,0.5885186223488,0.5770776228736,-0.0703273748352,-0.0045465031808,-9.8189893376928,-0.002366253056,-0.0033167484544,0.0683485626304,33.9995893435424,-0.0714559055328,-0.0061144084832,-9.8193324642208,-0.0022410343776,-0.0034962796383999,0.0683988125248,-0.389623,-0.288156,0.805181,-0.071196,-0.006775,-9.816974,359.9271054556986,359.4895375875572,141.7909252832279,0.0014212499968,0.0014208749952,0.0122627499904,-0.3272916270592,-0.004000999936,0.0020589998848,-0.9449127492864,0.0014212499968,0.0014208749952,0.0122627499904,3.968573,0.0,0.0,0.00212849979904,0.0,0.0,0.001642499456,0.0,0.0,0.0,2.639789445435412
2023-09-08 15:20:49.960,0.027274,-0.075879,-0.00086,0.08774,0.087747,0.069106,48.359257,-4.557296,48.203915,50.787003,0.590022,0.58914,0.577576,-0.070366,-0.003801,-9.820409,-0.00165,-0.003679,0.068318,33.999638,-0.071624,-0.005591,-9.820394,-0.001508,-0.003874,0.068393,-0.384792979392,-0.2860432409856,0.80629662976,-0.0771705254912,-0.0073780025728,-9.8205526402688,359.92448416260174,359.48691629446034,141.84945317171844,0.001422,0.001422,0.012265,-0.326809,-0.004016,0.002086,-0.94508,0.001422,0.001422,0.012265,3.968573,0.0,0.0,0.0021756,0.0,0.0,0.0017699999999999,0.0,0.0,0.0,2.6983173339259565
2023-09-08 15:20:49.985,0.0277321238272,-0.0754202511744,-0.0010137496064,0.0880706241536,0.0880776241536,0.0692722495744,48.359257,-4.557296,48.2039068750208,50.787003,0.5910738723072,0.5901881223168001,0.5784128728576,-0.0758178610432,-0.008032239168,-9.8205202497152,0.0002412451584,-0.0040064991616,0.0681592504064,34.000014249036795,-0.0764552376319999,-0.0079966188416,-9.8206077494528,0.0004932448767999,-0.0041114993919999,0.0681380006528,-0.376743,-0.282522,0.808156,-0.087128,-0.008383,-9.826517,359.92466321145434,359.4820103558988,141.94721384524468,0.0014238749952,0.0014238749952,0.0122643750016,-0.326002752064,-0.0040584998912,0.002095374976,-0.9453574992896,0.0014238749952,0.0014238749952,0.0122643750016,3.968573,0.0,0.0,0.00225409979904,0.0,0.0,0.001982499456,0.0,0.0,0.0,2.796078007452195
2023-09-08 15:20:50.000,0.028007,-0.075145,-0.001106,0.088269,0.088276,0.069372,48.359257,-4.557296,48.203902,50.787003,0.591705,0.590817,0.578915,-0.079089,-0.010571,-9.820587,0.001376,-0.004203,0.068064,34.00024,-0.079354,-0.00944,-9.820736,0.001694,-0.004254,0.067985,-0.3755489949056,-0.2825760002303999,0.8080547495679999,-0.0848547403008,-0.0082449994112,-9.825018868608,359.9247706414993,359.47906677266707,142.00587064978916,0.001425,0.001425,0.012264,-0.325519,-0.004084,0.002101,-0.945524,0.001425,0.001425,0.012264,3.968573,0.0,0.0,0.0023012,0.0,0.0,0.00211,0.0,0.0,0.0,2.8547348119966784
2023-09-08 15:20:50.020,0.0275495,-0.0752029999999999,-0.000539,0.0871855,0.0871919999999999,0.0688425,48.359257,-4.557296,48.2013475,50.787003,0.590481,0.589597,0.5782944999999999,-0.0768085,-0.007286,-9.819834,0.0036774999999999,-0.004461,0.067853,34.00008,-0.077222,-0.0069265,-9.819898,0.0040025,-0.0044925,0.0677845,-0.3739569949055999,-0.2826480002304,0.807919749568,-0.0818237403008,-0.0080609994112,-9.823021368608,359.9305288673404,359.47445446241625,142.08356372680888,0.001419,0.001419,0.012263,-0.3248775,-0.00414,0.0020635,-0.9457445,0.001419,0.001419,0.012263,3.968573,0.0,0.0,0.002364,0.0,0.0,0.00228,0.0,0.0,0.0,2.9324278890163957
2023-09-08 15:20:50.025,0.027435126464,-0.0752174998144,-0.0003972518143999,0.0869146284672,0.0869210034688,0.0687101266944,48.359257,-4.557296,48.2007088831744,50.787003,0.5901750039168,0.589292003904,0.5781393769856,-0.0762383822976,-0.006464760512,-9.8196457524096,0.0042528676352,-0.0045254991744,0.0678002506752,34.000040000512,-0.0766890068224,-0.0062981330432,-9.8196885026816,0.0045796176127999,-0.0045521242368,0.0677343756416,-0.373559,-0.282666,0.807886,-0.081066,-0.008015,-9.822522,359.93196840537433,359.4733013996129,142.10298674744598,0.0014175000192,0.0014175000192,0.0122627500032,-0.3247171270528,-0.0041539998208,0.00205412512,-0.9457996242944,0.0014175000192,0.0014175000192,0.0122627500032,3.968573,0.0,0.0,0.00237934980352,0.0,0.0,0.00225945026304,0.0,0.0,0.0,2.9518509096535013
2023-09-08 15:20:50.040,0.027092,-0.075261,2.8e-05,0.086102,0.086108,0.068313,48.359257,-4.557296,48.198793,50.787003,0.589257,0.588377,0.577674,-0.074528,-0.004001,-9.819081,0.005979,-0.004719,0.067642,33.99992,-0.07509,-0.004413,-9.81906,0.006311,-0.004731,0.067584,-0.3784606459135999,-0.2824286239872,0.8052651138176,-0.0785043640704,-0.0034381054719999,-9.8181281062528,359.9362870931815,359.4698421521654,142.16125680382862,0.001413,0.001413,0.012262,-0.324236,-0.004196,0.002026,-0.945965,0.001413,0.001413,0.012262,3.968573,0.0,0.0,0.0024254,0.0,0.0,0.0021977999999999,0.0,0.0,0.0,3.0101209660361405
2023-09-08 15:20:50.065,0.0271876247552,-0.0748897509504,-4.3874816e-05,0.0864307491584,0.0864373741568,0.0684811245696,48.359257,-4.557296,48.1988011249792,50.787003,0.5902763723904,0.5893919974016,0.5784952478976,-0.073596752384,-0.0024210040447999,-9.8192972494464,0.0079421199744,-0.0049402494336,0.0679982490879999,33.999693125580805,-0.0739343779584,-0.0025361298048,-9.8181931272192,0.0083097448832,-0.0049034995584,0.0679083741696,-0.38663,-0.282033,0.800897,-0.074235,0.00419,-9.810805,359.9476387904371,359.46382611071766,142.25855195033805,0.0014148749951999,0.0014148749951999,0.0122607500032,-0.3234322520576,-0.0042797497856,0.0019453752064,-0.9462393742976,0.0014148749951999,0.0014148749951999,0.0122607500032,3.968573,0.0,0.0,0.00250214980352,0.0,0.0,0.0020950502630399,0.0,0.0,0.0,3.1074161125455646
2023-09-08 15:20:50.080,0.027245,-0.074667,-8.7e-05,0.086628,0.086635,0.068582,48.359257,-4.557296,48.198806,50.787003,0.590888,0.590001,0.578988,-0.073038,-0.001473,-9.819427,0.00912,-0.005073,0.068212,33.999557,-0.073241,-0.00141,-9.817673,0.009509,-0.005007,0.068103,-0.3864957494272,-0.284393635072,0.8039153878784,-0.074416875776,0.000685610048,-9.8114860029056,359.9544498552871,359.46021646120727,142.31692943676566,0.001416,0.001416,0.01226,-0.32295,-0.00433,0.001897,-0.946404,0.001416,0.001416,0.01226,3.968573,0.0,0.0,0.0025482,0.0,0.0,0.0020334,0.0,0.0,0.0,3.165793598973181
2023-09-08 15:20:50.105,0.0273099998336,-0.0742870009728,-0.0002644995456,0.0869579991552,0.0869643741568,0.0687501245696,48.359257,-4.557296,48.1988134999808,50.787003,0.59191924736,0.5910278723711999,0.57981612288,-0.0740486224128,-0.0013986251904,-9.8163451328896,0.011204369664,-0.00472925088,0.0676070015487999,33.9994238753408,-0.0736016240768,-0.001666249344,-9.8169180019328,0.0114052451456,-0.0046970007936,0.0675386264447999,-0.386272,-0.288328,0.808946,-0.07472,-0.005155,-9.812621,359.9701345347759,359.4548808053994,142.41365162694677,0.0014178749951999,0.0014172499968,0.0122593750016,-0.322150002048,-0.0044193747712,0.0017788753024,-0.9466764993024,0.0014178749951999,0.0014172499968,0.0122593750016,3.968573,0.0,0.0,0.00262494980352,0.0,0.0,0.0019306502630399,0.0,0.0,0.0,3.2625157891542926
2023-09-08 15:20:50.120,0.027349,-0.074059,-0.000371,0.087156,0.087162,0.068851,48.359257,-4.557296,48.198818,50.787003,0.592538,0.591644,0.580313,-0.074655,-0.001354,-9.814496,0.012455,-0.004523,0.067244,33.999344,-0.073818,-0.00182,-9.816465,0.012543,-0.004511,0.0672,-0.3898611403136,-0.284658609344,0.8092640013568,-0.0742036227968,-0.0056732522112,-9.8099071134208,359.97954540671384,359.4516793900598,142.47168533723053,0.001419,0.001418,0.012259,-0.32167,-0.004473,0.001708,-0.94684,0.001419,0.001418,0.012259,3.968573,0.0,0.0,0.002671,0.0,0.0,0.001869,0.0,0.0,0.0,3.3205494994380444
2023-09-08 15:20:50.145,0.0272133753472,-0.0735896262015999,-0.0003747499904,0.0874859991552,0.0874919991552,0.0690178745728,48.359257,-4.557296,48.1988417499392,50.787003,0.5935804973312,0.5926827473408,0.5811467478656,-0.068883139776,-0.006582111616,-9.8120260063232,0.0139812460928,-0.004323000512,0.0670558754816,34.0000183732736,-0.0692311367424,-0.0071706113023999,-9.8123481355392,0.0141498708864,-0.0042528756608,0.0671431251456,-0.395843,-0.278543,0.809794,-0.073343,-0.006537,-9.805384,134.9994944925665,359.4468808808098,142.56740485383696,0.0014208749952,0.0014198749951999,0.0122627499904,-0.3208787520256,-0.0045686247552,0.001558000384,-0.9471081243136,0.0014208749952,0.0014198749951999,0.0122627499904,3.968573,0.0,0.0,0.00266775000832,0.0,0.0,0.00149637595392,0.0,0.0,0.0,3.416269016044481
2023-09-08 15:20:50.160,0.027132,-0.073308,-0.000377,0.087684,0.08769,0.069118,48.359257,-4.557296,48.198856,50.787003,0.594206,0.593306,0.581647,-0.06542,-0.009719,-9.810544,0.014897,-0.004203,0.066943,34.000423,-0.066479,-0.010381,-9.809878,0.015114,-0.004098,0.067109,-0.3922006094592,-0.2787147507328,0.8110022551552,-0.0746765056896,-0.0106346424832,-9.8042211200384,0.0105424234304071,359.44400175560503,142.62483695586897,0.001422,0.001421,0.012265,-0.320404,-0.004626,0.001468,-0.947269,0.001422,0.001421,0.012265,3.968573,0.0,0.0,0.0026658,0.0,0.0,0.0012728,0.0,0.0,0.0,3.473701118076491
2023-09-08 15:20:50.185,0.0266976261119999,-0.07316737536,-0.0002346566144,0.0875591565696,0.0875651565696,0.0690611251456,48.359257,-4.557296,48.1977663152896,50.787003,0.5945394366464,0.5936377179008,0.5820374677504,-0.07277935616,-0.0112039961984,-9.8095483775488,0.0155401233536,-0.0034111270272,0.0670479997312,33.999982376128,-0.0726177342847999,-0.0110678732416,-9.8092986264832,0.015663998592,-0.00333237696,0.0670540001408,-0.38613,-0.279001,0.813016,-0.076899,-0.017464,-9.802283,0.0311330414808038,359.4408863055696,142.7205206627049,0.0014232499967999,0.0014228749951999,0.0122643750016,-0.3196115020288,-0.0047097497856,0.001302375424,-0.9475358743168,0.0014232499967999,0.0014228749951999,0.0122643750016,3.968573,0.0,0.0,0.00266255000832,0.0,0.0,0.00090017595392,0.0,0.0,0.0,3.5693848249124187
2023-09-08 15:20:50.200,0.026437,-0.073083,-0.00014925,0.08748425,0.08749025,0.069027,48.359257,-4.557296,48.1971125,50.787003,0.5947395,0.59383675,0.5822717500000001,-0.077195,-0.012095,-9.808951,0.015926,-0.002936,0.067111,33.999718,-0.076301,-0.01148,-9.808951,0.015994,-0.002873,0.067021,-0.3852696213290666,-0.2794375018624,0.8144605061632,-0.0764708731733333,-0.015990243712,-9.801886498308264,0.0434874966504294,359.4390170227874,142.77793127872792,0.001424,0.001424,0.012264,-0.319136,-0.00476,0.001203,-0.947696,0.001424,0.001424,0.012264,3.968573,0.0,0.0,0.0026606,0.0,0.0,0.0006766,0.0,0.0,0.0,3.626795440935439
2023-09-08 15:20:50.305,0.0246126261119999,-0.07249237536,0.0004485933855999,0.0869599065696,0.0869659065696,0.0687881251456,48.359257,-4.557296,48.1925358152896,50.787003,0.5961399366464,0.5952299679008,0.5839117177504001,-0.067469380928,-0.0085521271594666,-9.8021601291392,0.0132038766592,0.0008676226816,0.0658431257727999,33.99957712508587,-0.0673261304704,-0.0086056267519999,-9.802927503671466,0.0130820017749333,0.0009577476650666,0.0655868758741333,-0.379247,-0.282493,0.824572,-0.073474,-0.005674,-9.799111,0.1233004688642165,359.4423258520375,143.1773470762325,0.0014178750037333,0.0014170000042666,0.0122596250026666,-0.3158276270165333,-0.00495687488,0.0005161254186666,-0.9488028743253334,0.0014178750037333,0.0014170000042666,0.0122596250026666,3.968573,0.0,0.0,0.00264695000832,0.0,0.0,-0.0008884240460799,0.0,0.0,0.0,4.026211238440027
2023-09-08 15:20:50.320,0.024352,-0.072408,0.000534,0.086885,0.086891,0.068754,48.359257,-4.557296,48.191882,50.787003,0.59634,0.595429,0.584146,-0.06608,-0.008046,-9.80119,0.012815,0.001411,0.065662,33.999557,-0.066044,-0.008195,-9.802067,0.012666,0.001505,0.065382,-0.3862929050624,-0.2775141037568,0.8282260155904,-0.069013355968,-0.007946509696,-9.800286630016,0.1347023776352565,359.4427985442353,143.23440675410868,0.001417,0.001416,0.012259,-0.315355,-0.004985,0.000418,-0.948961,0.001417,0.001416,0.012259,3.968573,0.0,0.0,0.002645,0.0,0.0,-0.001112,0.0,0.0,0.0,4.083270916316195
2023-09-08 15:20:50.345,0.0237851264512,-0.072389250048,0.0001996258559999,0.0872137491584,0.0872197491584,0.0689214995712,48.359257,-4.557296,48.1919251248896,50.787003,0.597380622336,0.5964658723456,0.5849809978624,-0.0660868749824,-0.0084178740479999,-9.8019956229376,0.010668130496,0.0016503743872,0.0655001254144,33.9996907496576,-0.0650008776704,-0.0084231244159999,-9.8022869994368,0.0104110057728,0.0017537493632,0.0653545000703999,-0.398036,-0.269216,0.834316,-0.061579,-0.011734,-9.802246,0.1454094990214628,359.44637952128755,143.32754796723748,0.0014188749952,0.0014178749951999,0.0122633749888,-0.314583126976,-0.004985,0.0003155002624,-0.9492166243456,0.0014188749952,0.0014178749951999,0.0122633749888,3.968573,0.0,0.0,0.0025687501952,0.0,0.0,-0.00143049918464,0.0,0.0,0.0,4.176412129444998
2023-09-08 15:20:50.360,0.023445,-0.072378,-1e-06,0.087411,0.087417,0.069022,48.359257,-4.557296,48.191951,50.787003,0.598005,0.597088,0.585482,-0.066091,-0.008641,-9.802479,0.00938,0.001794,0.065403,33.999771,-0.064375,-0.00856,-9.802419,0.009058,0.001903,0.065338,-0.3937804818431999,-0.2681727455488,0.821804071616,-0.06052899552,-0.0134507573248,-9.799834739712,0.1518338157096681,359.4485281221866,143.38343307662217,0.00142,0.001419,0.012266,-0.31412,-0.004985,0.000254,-0.94937,0.00142,0.001419,0.012266,3.968573,0.0,0.0,0.002523,0.0,0.0,-0.0016216,0.0,0.0,0.0,4.232297238829688
2023-09-08 15:20:50.385,0.0230118761088,-0.0722955002112,-0.0003903740031999,0.0877403741568,0.0877463741567999,0.0691882495744,48.359257,-4.557296,48.1920091248512,50.787003,0.5990574973056,0.5981361223168,0.5863232478464,-0.0651735023488,-0.0090966238336,-9.8037889966464,0.0073343802367999,0.0027496225536,0.06505925088,33.999621000384,-0.0654631222144,-0.0091212485631999,-9.8036233719168,0.007029880192,0.0028523725696,0.065194250368,-0.386688,-0.266434,0.800951,-0.058779,-0.016312,-9.795816,0.1578856669279586,359.45422187569966,143.47585809434057,0.0014212499968,0.0014208749952,0.0122647500032,-0.3133537519616,-0.0049543750784,0.0001840001792,-0.949623124352,0.0014212499968,0.0014208749952,0.0122647500032,3.968573,0.0,0.0,0.0024467501952,0.0,0.0,-0.00194009918464,0.0,0.0,0.0,4.324722256548085
2023-09-08 15:20:50.400,0.022752,-0.072246,-0.000624,0.087938,0.087944,0.069288,48.359257,-4.557296,48.192044,50.787003,0.599689,0.598765,0.586828,-0.064623,-0.00937,-9.804575,0.006107,0.003323,0.064853,33.999531,-0.066116,-0.009458,-9.804346,0.005813,0.003422,0.065108,-0.3901331396992,-0.2674656294016,0.8042795142015999,-0.0614002611839999,-0.0100978484864,-9.8013517736192,0.161516802447379,359.4576381511292,143.53131348354546,0.001422,0.001422,0.012264,-0.312894,-0.004936,0.000142,-0.949775,0.001422,0.001422,0.012264,3.968573,0.0,0.0,0.002401,0.0,0.0,-0.0021311999999999,0.0,0.0,0.0,4.38017764575298
2023-09-08 15:20:50.420,0.0217955,-0.072145,0.0002614999999999,0.086437,0.086444,0.068462,48.359257,-4.557296,48.1856435,50.787003,0.588031,0.5871569999999999,0.5768805,-0.0643499999999999,-0.0112485,-9.8049815,0.004157,0.0036985,0.064693,34.000124,-0.0652705,-0.0110045,-9.8059325,0.0038389999999999,0.0037229999999999,0.064718,-0.3947266396991999,-0.2688411294016,0.8087175142016,-0.0648952611839999,-0.0018123484864,-9.8087327736192,0.1620324644629967,359.4627088276161,143.60548287012514,0.001415,0.001415,0.0122635,-0.3122795,-0.0048955,0.000121,-0.9499775,0.001415,0.001415,0.0122635,3.968573,0.0,0.0,0.00234,0.0,0.0,-0.002386,0.0,0.0,0.0,4.454347032332663
2023-09-08 15:20:50.425,0.0215563780608,-0.0721197503232,0.0004828721664,0.0860617548032,0.0860690048,0.0682555026432,48.359257,-4.557296,48.1840433954816,50.787003,0.5851165373056,0.5842550371456,0.574393656832,-0.0642817508736,-0.0117181189888,-9.8050831236992,0.00366950624,0.0037923737984,0.064653000512,34.0002722481024,-0.0650591277055999,-0.0113911200512,-9.8063291199232,0.0033455063167999,0.0037982490367999,0.0646205012479999,-0.395875,-0.269185,0.809827,-0.065769,0.000259,-9.810578,0.1621613783167827,359.46397648051163,143.624024979428,0.0014132500224,0.0014132500224,0.0122633750016,-0.3121258769664,-0.0048853751296,0.0001157500672,-0.950028124352,0.0014132500224,0.0014132500224,0.0122633750016,3.968573,0.0,0.0,0.0023292668040533,0.0,0.0,-0.00238644999424,0.0,0.0,0.0,4.472889141635505
2023-09-08 15:20:50.440,0.020839,-0.072044,0.001147,0.084936,0.084944,0.067636,48.359257,-4.557296,48.179243,50.787003,0.576373,0.575549,0.566933,-0.064077,-0.013127,-9.805388,0.002207,0.004074,0.064533,34.000717,-0.064425,-0.012551,-9.807519,0.001865,0.004024,0.064328,-0.3957422494336,-0.2703771300864,0.8128506379008,-0.0642813686528,-0.0039755180672,-9.8090956186752,0.1625481264786145,359.46777950410296,143.67965225670483,0.001408,0.001408,0.012263,-0.311665,-0.004855,0.0001,-0.95018,0.001408,0.001408,0.012263,3.968573,0.0,0.0,0.0022970666666666,0.0,0.0,-0.0023878,0.0,0.0,0.0,4.528516418912346
2023-09-08 15:20:50.465,0.0203433762688,-0.072097124864,0.0007876259199999,0.0852647491584,0.0852727491584,0.0678059995648,48.359257,-4.557296,48.1792698749312,50.787003,0.5773529974912001,0.5765258724992,0.5677304979584,-0.0644688739968,-0.010817630912,-9.8082823675904,-0.0001198690431999,0.0038996254464,0.0646123747968,34.0007382499456,-0.0640056260736,-0.0111835035008,-9.8079821238144,-0.0004249941376,0.003786500608,0.0645273744896,-0.395521,-0.272364,0.81789,-0.061802,-0.011033,-9.806625,0.157749617228609,359.4737955455508,143.7728292796042,0.0014098749951999,0.0014098749951999,0.0122617500032,-0.3108925019776,-0.00479250016,0.0001193749504,-0.950433124352,0.0014098749951999,0.0014098749951999,0.0122617500032,3.968573,0.0,0.0,0.0022434001373866,0.0,0.0,-0.00239004999424,0.0,0.0,0.0,4.621693441811715
2023-09-08 15:20:50.480,0.020046,-0.072129,0.000572,0.085462,0.08547,0.067908,48.359257,-4.557296,48.179286,50.787003,0.577941,0.577112,0.568209,-0.064704,-0.009432,-9.810019,-0.001516,0.003795,0.06466,34.000751,-0.063754,-0.010363,-9.80826,-0.001799,0.003644,0.064647,-0.3967183801088,-0.2711403697792,0.8179953754496,-0.066744521088,-0.0083566135808,-9.8086747587456,0.1548704920238615,359.4774051950612,143.82873587499788,0.001411,0.001411,0.012261,-0.310429,-0.004755,0.000131,-0.950585,0.001411,0.001411,0.012261,3.968573,0.0,0.0,0.0022112,0.0,0.0,-0.0023914,0.0,0.0,0.0,4.677600037205394
2023-09-08 15:20:50.505,0.020016312576,-0.072122229184,0.0006176248832,0.0855188748543999,0.085526770688,0.0679410207488,48.359257,-4.5572961041664,48.1785767309824,50.787003,0.57854256096,0.5777108526336,0.5687627485824,-0.0697583620608,-0.0129251160576,-9.8111321221504,-0.0037891191807999,0.0033756260736,0.064197501184,34.0007110001024,-0.0698996092672,-0.0131854927744,-9.8107431186432,-0.0040377442688,0.0033546257408,0.0642507510144,-0.398714,-0.269101,0.818171,-0.074982,-0.003896,-9.812091,0.1449869953596709,359.4827766606396,143.92065955592895,0.0014128749951999,0.0014128749951999,0.0122603750016,-0.309666501952,-0.0046837501824,0.0001947498368,-0.9508337493632,0.0014128749951999,0.0014128749951999,0.0122603750016,3.968573,0.0,0.0,0.00215753347072,0.0,0.0,-0.00239364999424,0.0,0.0,0.0,4.769523718136469
2023-09-08 15:20:50.520,0.0199985,-0.0721181666666666,0.000645,0.0855529999999999,0.0855608333333333,0.0679608333333333,48.359257,-4.557296166666667,48.178151166666666,50.787003,0.5789035,0.5780701666666667,0.5690949999999999,-0.072791,-0.015021,-9.8118,-0.005153,0.003124,0.06392,34.000687,-0.073587,-0.014879,-9.812233,-0.005381,0.003181,0.064013,-0.39831552329984,-0.2684076220415999,0.816316617088,-0.0746006233727999,-0.0038468747904,-9.81216577531904,0.1390568568782507,359.48599956198814,143.97581414100796,0.001414,0.001414,0.01226,-0.309209,-0.004641,0.000233,-0.950983,0.001414,0.001414,0.01226,3.968573,0.0,0.0,0.0021253333333333,0.0,0.0,-0.002395,0.0,0.0,0.0,4.824678303215478
2023-09-08 15:20:50.705,0.019778812576,-0.0720680625173333,0.0009826248832,0.0859738748544,0.0859809373546666,0.0682051874154666,48.359257,-4.557296937499734,48.17290256431573,50.787003,0.58335506096,0.5825016859669333,0.5731927485824,-0.0773088526037333,-0.0098155643007999,-9.809608521591466,-0.0084143947050666,-0.0009059152725333,0.0626627712682666,34.00316291581013,-0.0783253108608,-0.0089443562197333,-9.810365271479467,-0.0082916656597333,-0.000912123584,0.062648625472,-0.393401,-0.259856,0.793446,-0.069897,-0.003241,-9.813088,0.0141392092041095,359.498666222062,144.6415822742632,0.001414,0.00141307500032,0.01226,-0.30368397691136,-0.0042062501504,0.00121164966144,-0.95276177438464,0.001414,0.00141307500032,0.01226,3.968573,0.0,0.0,0.0017282001373866,0.0,0.0,-0.00241164999424,0.0,0.0,0.0,5.490446436470705
2023-09-08 15:20:50.720,0.019761,-0.072064,0.00101,0.086008,0.086015,0.068225,48.359257,-4.557297,48.172477,50.787003,0.583716,0.582861,0.573525,-0.0776751666666666,-0.0093934999999999,-9.809430833333334,-0.0086788333333333,-0.0012326666666666,0.0625608333333333,34.003363666666665,-0.0787095,-0.0084631666666666,-9.810213833333334,-0.0085276666666666,-0.0012439999999999,0.062538,-0.3952598829312,-0.2633476398975999,0.8057468024832,-0.0761850268288,0.0014225198976,-9.8094489844736,0.0040107045659157,359.4996932532917,144.6955637232513,0.001414,0.001413,0.01226,-0.303236,-0.004171,0.001291,-0.952906,0.001414,0.001413,0.01226,3.968573,0.0,0.0,0.001696,0.0,0.0,-0.002413,0.0,0.0,0.0,5.544427885458816
2023-09-08 15:20:50.745,0.0200059993728,-0.0719715002368,0.001156874624,0.0863373741568,0.0863449991552,0.068393749568,48.359257,-4.557297,48.1724407500928,50.787003,0.5847247474176,0.5838666224256001,0.5743399979136,-0.0782856859370666,-0.0086900643008,-9.809134688258132,-0.0091195613717333,-0.0017772486058666,0.0623909379349333,34.00369824914346,-0.0793498108608,-0.0076611895530666,-9.809961438146134,-0.0089209989930666,-0.0017971235839999,0.062353625472,-0.398358,-0.269167,0.826248,-0.086665,0.009195,-9.803384,224.98817974232333,359.49768790614246,144.78430033460586,0.0014152499968,0.0014148749951999,0.0122643749888,-0.302498501888,-0.0041485000576,0.0014197496704,-0.9531397494016,0.0014152499968,0.0014148749951999,0.0122643749888,3.968573,0.0,0.0,0.00166487507968,0.0,0.0,-0.00233250020608,0.0,0.0,0.0,5.633164496813379
2023-09-08 15:20:50.760,0.020153,-0.071916,0.001245,0.086535,0.086543,0.068495,48.359257,-4.557297,48.172419,50.787003,0.58533,0.58447,0.574829,-0.078652,-0.008268,-9.808957,-0.009384,-0.002104,0.062289,34.003899,-0.079734,-0.00718,-9.80981,-0.009157,-0.002129,0.062243,-0.3998756314752,-0.267888244544,0.81878546816,-0.080004971584,0.0007484639615999,-9.8031394989568,359.97960270249337,359.49648468963903,144.8375426648847,0.001416,0.001416,0.012267,-0.302056,-0.004135,0.001497,-0.95328,0.001416,0.001416,0.012267,3.968573,0.0,0.0,0.0016462,0.0,0.0,-0.0022842,0.0,0.0,0.0,5.686406827092213
2023-09-08 15:20:50.785,0.0204909158016,-0.0717299588096,0.001811665216,0.0863529171328,0.0863607087999999,0.068408541888,48.359257,-4.557297,48.171170044864,50.787003,0.5855781243648001,0.584716874368,0.5751577491584,-0.0771420038656,-0.0113092422144,-9.8059838826112,-0.0080696283648,-0.0028096231936,0.0617221264511999,34.0039202499456,-0.0766458829056,-0.0110449901055999,-9.8055031360256,-0.0078707532928,-0.0028314982015999,0.0617592512384,-0.402405,-0.265757,0.806348,-0.068905,-0.013329,-9.802732,359.96728414143365,359.4929395223573,144.92527660266467,0.0014178749951999,0.0014178749951999,0.0122657500032,-0.3013260018688,-0.0041331250048,0.0016057497216,-0.9535106244096,0.0014178749951999,0.0014178749951999,0.0122657500032,3.968573,0.0,0.0,0.00161507507968,0.0,0.0,-0.00220370020608,0.0,0.0,0.0,5.774140764872186
2023-09-08 15:20:50.800,0.0206936666666666,-0.0716183333333333,0.0021516666666666,0.0862436666666666,0.0862513333333333,0.0683566666666666,48.359257,-4.557297,48.170420666666665,50.787003,0.585727,0.5848650000000001,0.5753550000000001,-0.076236,-0.013134,-9.8042,-0.007281,-0.003233,0.061382,34.003933,-0.074793,-0.013364,-9.802919,-0.007099,-0.003253,0.061469,-0.4035660049536,-0.2657088122944,0.8072065661632,-0.0701897554816,-0.013345875072,-9.80312106416,359.95989295434083,359.4908124074672,144.97791732469176,0.001419,0.001419,0.012265,-0.300888,-0.004132,0.001671,-0.953649,0.001419,0.001419,0.012265,3.968573,0.0,0.0,0.0015964,0.0,0.0,-0.0021554,0.0,0.0,0.0,5.826781486899279
2023-09-08 15:20:50.865,0.0215722491349333,-0.0711346254762666,0.0036249985493333,0.0857702504661333,0.0857773754666666,0.0681318752213333,48.359257,-4.557297,48.16717337819733,50.787003,0.5863721243648,0.5855068743680001,0.5762097491584,-0.0758492503808,-0.0094996910784,-9.7997645668672,-0.0026513795583999,-0.0027406254848,0.0613576250239999,34.004109312326406,-0.0755697492352,-0.0096720036351999,-9.7987841915712,-0.0025546919743999,-0.0026940005504,0.06142837504,-0.408597,-0.2655,0.810927,-0.075757,-0.013419,-9.804807,359.9443443274849,359.48396914953963,145.20649145002892,0.0014125000064,0.0014125000064,0.0122625625024,-0.2989859393728,-0.0041514999808,0.0018099373632,-0.954246186912,0.0014125000064,0.0014125000064,0.0122625625024,3.968573,0.0,0.0,0.00151547507968,0.0,0.0,-0.00194610020608,0.0,0.0,0.0,6.05535561223644
2023-09-08 15:20:50.880,0.021775,-0.071023,0.003965,0.085661,0.085668,0.06808,48.359257,-4.557297,48.166424,50.787003,0.586521,0.585655,0.576407,-0.07576,-0.008661,-9.798741,-0.001583,-0.002627,0.061352,34.00415,-0.075749,-0.00882,-9.79783,-0.001506,-0.002565,0.061419,-0.4037561043456,-0.2668957559552,0.8120298797056,-0.0703281018368,-0.0133263746048,-9.8011964845952,359.94075616398345,359.48238992787884,145.25923960210096,0.001411,0.001411,0.012262,-0.298547,-0.004156,0.001842,-0.954384,0.001411,0.001411,0.012262,3.968573,0.0,0.0,0.0014968,0.0,0.0,-0.0018978,0.0,0.0,0.0,6.108103764308481
2023-09-08 15:20:50.905,0.0219743744896,-0.0703648766848,0.0042174993535999,0.0859897491584,0.0859967491584,0.0682487495679999,48.359257,-4.557297,48.1663296252416,50.787003,0.5875259974272,0.5866556224384,0.5772213729151999,-0.072491258368,-0.0092847484032,-9.7977435025536,0.00018262048,-0.0026157500288,0.0614007498752,34.0041143750912,-0.071345886272,-0.0098462473728,-9.7968493775104,0.00041587008,-0.0025475000448,0.0613740001152,-0.395688,-0.269222,0.813868,-0.06128,-0.013172,-9.795179,359.9408277835245,359.4799190537128,145.3475823059798,0.0014128749951999,0.0014128749951999,0.0122613750016,-0.2978107518848,-0.0041784999424,0.0018444999936,-0.9546139994112,0.0014128749951999,0.0014128749951999,0.0122613750016,3.968573,0.0,0.0,0.00146567507968,0.0,0.0,-0.0018173002060799,0.0,0.0,0.0,6.196446468187332
2023-09-08 15:20:50.920,0.022094,-0.06997,0.004369,0.086187,0.086194,0.06835,48.359257,-4.557297,48.166273,50.787003,0.588129,0.587256,0.57771,-0.07053,-0.009659,-9.797145,0.001242,-0.002609,0.06143,34.004093,-0.068704,-0.010462,-9.796261,0.001569,-0.002537,0.061347,-0.3992047650048,-0.2690712493568,0.8156863827584,-0.0642642627328,-0.0077371018112,-9.794880873728,359.9408707555425,359.4784365190924,145.40058829015976,0.001414,0.001414,0.012261,-0.297369,-0.004192,0.001846,-0.954752,0.001414,0.001414,0.012261,3.968573,0.0,0.0,0.001447,0.0,0.0,-0.001769,0.0,0.0,0.0,6.249452452367279
2023-09-08 15:20:50.945,0.0221621248256,-0.0693737515264,0.004547124544,0.0865163741568,0.0865233741568,0.0685181245695999,48.359257,-4.557297,48.1661786252416,50.787003,0.5891458723967999,0.5882691224064,0.5785306228992,-0.0668850093312,-0.0100452490112,-9.7960725027456,0.0031994949888,-0.0024040005248,0.0612625004288,34.003902375488,-0.067247753728,-0.0101607507712,-9.7958403760768,0.0034114952832,-0.0023007506048,0.0612226253184,-0.405066,-0.26882,0.818717,-0.069238,0.001321,-9.794384,359.9452037377757,359.4765027914842,145.48774927161136,0.0014158749952,0.0014158749952,0.0122647499904,-0.2966427518591999,-0.0042207499264,0.001811625088,-0.9549776244224,0.0014158749952,0.0014158749952,0.0122647499904,3.968573,0.0,0.0,0.0014076667673599,0.0,0.0,-0.0016317503513599,0.0,0.0,0.0,6.336613433818883
2023-09-08 15:20:50.960,0.022203,-0.069016,0.004654,0.086714,0.086721,0.068619,48.359257,-4.557297,48.166122,50.787003,0.589756,0.588877,0.579023,-0.064698,-0.010277,-9.795429,0.004374,-0.002281,0.061162,34.003788,-0.066374,-0.00998,-9.795588,0.004517,-0.002159,0.061148,-0.4028107403776,-0.267736245376,0.8154904862336,-0.072258637888,0.004778514752,-9.785164585664,359.9478035448636,359.4753425469987,145.54004621749462,0.001417,0.001417,0.012267,-0.296207,-0.004238,0.001791,-0.955113,0.001417,0.001417,0.012267,3.968573,0.0,0.0,0.0013840666666666,0.0,0.0,-0.0015494,0.0,0.0,0.0,6.388910379702139
2023-09-08 15:20:50.985,0.0213630021504,-0.0683210017792,0.0048767077632,0.0865596253952,0.0865666253952,0.0685467085184,48.359257,-4.557297,48.164916794752,50.7872111244672,0.5900428742656,0.5891622076032,0.5793782074239999,-0.0657486223104,-0.0143588645503999,-9.7952115005568,0.0059608709376,-0.002043500608,0.0608101259008,34.0041267491328,-0.0675733719296,-0.0133806162944,-9.797659869696,0.0062832454784,-0.0020808752,0.0609242505728,-0.399052,-0.26593,0.810113,-0.077293,0.010541,-9.769799,359.9561472213953,359.4735520584726,145.6273862477988,0.0014188749952,0.0014182499967999,0.0122663750016,-0.2954782518656,-0.0042761249023999,0.0017228751743999,-0.955337999424,0.0014188749952,0.0014182499967999,0.0122663750016,3.968573,0.0,0.0,0.0013447334340266,0.0,0.0,-0.00141215035136,0.0,0.0,0.0,6.476250410006315
2023-09-08 15:20:51.000,0.020859,-0.0679039999999999,0.0050103333333333,0.086467,0.086474,0.0685033333333333,48.359257,-4.557297,48.16419366666667,50.787336,0.5902149999999999,0.5893333333333334,0.5795913333333333,-0.066379,-0.016808,-9.795081,0.006913,-0.001901,0.060599,34.00433,-0.068293,-0.015421,-9.798903,0.007343,-0.002034,0.06079,-0.3950014202176,-0.2666813157056,0.8067280480576,-0.0719850398528,0.0271421333312,-9.7714660696128,359.96115346149014,359.47247775802305,145.679790623727,0.00142,0.001419,0.012266,-0.295041,-0.004299,0.001682,-0.955473,0.00142,0.001419,0.012266,3.968573,0.0,0.0,0.0013211333333333,0.0,0.0,-0.0013298,0.0,0.0,0.0,6.5286547859345205
2023-09-08 15:20:51.065,0.0186750021504,-0.0660970017792,0.0055893744298666,0.0860656253951999,0.0860726253952,0.0683153751850666,48.359257,-4.557297,48.16106012808533,50.7878771244672,0.5909608742656,0.5900748742698667,0.5805148740906667,0.0367588359488,0.0143684068032,-9.7719198978048,0.0123153071808,-0.0006099387712,0.0588131267584,34.0048508119872,0.0328972753664,-0.0041841360639999,-9.805488306016,0.0134099315264,-0.0014603755648,0.0585345022208,-0.377449,-0.269937,0.79206,-0.048984,0.09908,-9.77869,67.49966128977974,359.4708018581224,145.90045077731116,0.0014143125056,0.0014133125056,0.0122635625024,-0.2931990643136,-0.0044135623872,0.0013594378175999,-0.9560401244416,0.0014143125056,0.0014133125056,0.0122635625024,3.968573,0.0,0.0,0.0012188667673599,0.0,0.0,-0.0009729503513599,0.0,0.0,0.0,6.749314939518683
2023-09-08 15:20:51.080,0.018171,-0.06568,0.005723,0.085973,0.08598,0.068272,48.359257,-4.557297,48.160337,50.788002,0.591133,0.590246,0.580728,0.06056,0.021563,-9.766575,0.013562,-0.000312,0.058401,34.004971,0.056249,-0.001591,-9.807008,0.01481,-0.001328,0.058014,-0.3854406590976,-0.2626083437312,0.8018786668928,-0.0536493949056,0.0911419661312,-9.8328897312512,0.0081932964703707,359.4704151099606,145.95137261861902,0.001413,0.001412,0.012263,-0.292774,-0.00444,0.001285,-0.956171,0.001413,0.001412,0.012263,3.968573,0.0,0.0,0.0011952666666666,0.0,0.0,-0.0008906,0.0,0.0,0.0,6.800236780826538
2023-09-08 15:20:51.105,0.0153969446016,-0.0650500016128,0.005968311872,0.0863020616576,0.0863087491584,0.0684401245696,48.359257,-4.557297,48.1601998128512,50.788002,0.5921542473856,0.591263184896,0.5815523728896,-0.0318853883392,0.0188398819711999,-9.7852168272768,0.0134951251712,-0.0002376251904,0.0547497593472,34.0054472487808,-0.0367220119936,0.0116689660543999,-9.779311195904,0.0126712554752,0.0002351209983999,0.0542383846656,-0.39876,-0.250394,0.818243,-0.061425,0.077912,-9.923222,0.0224455851382975,359.47313665252034,146.0236725453038,0.0014142499968,0.0014138749952,0.0122623750016,-0.2921702515456,-0.0044543749632,0.0011562503296,-0.956355374528,0.0014142499968,0.0014138749952,0.0122623750016,3.968573,0.0,0.0,0.0011559334340266,0.0,0.0,-0.00075335035136,0.0,0.0,0.0,6.87253670751133
2023-09-08 15:20:51.120,0.0137325,-0.064672,0.0061154999999999,0.0864995,0.086506,0.0685409999999999,48.359257,-4.557297,48.1601175,50.788002,0.592767,0.5918734999999999,0.582047,-0.087353,0.017206,-9.796402,0.013455,-0.000193,0.052559,34.005733,-0.092505,0.019625,-9.762693,0.011388,0.001173,0.051973,-0.3880645793664,-0.2567161519744,0.815794239552,0.0320032736255999,0.0542977742464,-9.9269337658368,0.0309970167165775,359.4747695892036,146.06705279745594,0.001415,0.001415,0.012262,-0.291808,-0.004463,0.001079,-0.956466,0.001415,0.001415,0.012262,3.968573,0.0,0.0,0.0011323333333333,0.0,0.0,-0.0006709999999999,0.0,0.0,0.0,6.915916959663463
2023-09-08 15:20:51.145,0.0109584446016,-0.0640420016127999,0.006360811872,0.0868285616576,0.0868347491584,0.0687091245696,48.359257,-4.557297,48.1599803128512,50.788002,0.5937882473856,0.5928906848959999,0.5828713728896,0.0512178952576,0.0275565985023999,-9.8150275773184,0.014651871936,-0.000299249728,0.047055889088,34.0061336239744,0.0573452413823999,0.0465111811712,-9.7989622821504,0.01437236736,-0.0001301216639999,0.0463455144064,-0.370239,-0.267253,0.811713,0.187716,0.014941,-9.93312,0.052232210636378,359.4744831110394,146.1281442659672,0.0014168749952,0.0014168749952,0.0122669999872,-0.2912967513088,-0.0045198748544,0.0008996254592,-0.9566216246016,0.0014168749952,0.0014168749952,0.0122669999872,3.968573,0.0,0.0,0.0010930001006933,0.0,0.0,-0.0005337503513599,0.0,0.0,0.0,6.977008428174713
2023-09-08 15:20:51.160,0.009294,-0.063664,0.006508,0.087026,0.087032,0.06881,48.359257,-4.557297,48.159898,50.788002,0.594401,0.593501,0.583366,0.134361,0.033767,-9.826203,0.01537,-0.000363,0.043754,34.006374,0.147256,0.062643,-9.820724,0.016163,-0.000912,0.042969,-0.3816206735616,-0.2654901174784,0.797494814336,0.1195909593344,0.0428159939328,-9.9004337355392,0.0649734139678353,359.47431122296746,146.16479939730525,0.001418,0.001418,0.01227,-0.29099,-0.004554,0.000792,-0.956715,0.001418,0.001418,0.01227,3.968573,0.0,0.0,0.0010693999999999,0.0,0.0,-0.0004513999999999,0.0,0.0,0.0,7.013663559512764
2023-09-08 15:20:51.185,0.0061865079552,-0.0628565020672,0.0069092489728,0.0873547491584,0.0873613741568,0.0689768745728,48.359257,-4.557297,48.159763625344,50.788002,0.5954397473408,0.5945353723519999,0.5841991228672,0.0761761489536,0.0782043862399999,-9.7904855914368,0.0189712407808,0.0012376209023999,0.0341108996864,34.006545874560004,0.0813292937728,0.068961733824,-9.7959390634496,0.0187992432512,0.0016111185408,0.0329352756864,-0.40059,-0.262552,0.773798,0.00605,0.089274,-9.845957,0.0924753177290609,359.4797901178574,146.20171927071388,0.0014198749951999,0.0014198749951999,0.0122712499968,-0.2906812507903999,-0.0045783749376,0.0005476256255999,-0.95680874976,0.0014198749951999,0.0014198749951999,0.0122712499968,3.968573,0.0,0.0,0.0010300667673599,0.0,0.0,-0.0003141503513599,0.0,0.0,0.0,7.0505834329214
2023-09-08 15:20:51.200,0.004322,-0.062372,0.00715,0.087552,0.087559,0.069077,48.359257,-4.557297,48.159683,50.788002,0.596063,0.595156,0.584699,0.041265,0.104867,-9.769055,0.021132,0.002198,0.028325,34.006649,0.041773,0.072753,-9.781068,0.020381,0.003125,0.026915,-0.3955023532928,-0.2616516211584,0.7809639055744,-0.0014819071359999,0.0499865823744,-9.8035814441984,0.1089765726338825,359.483077477233,146.22387134598324,0.001421,0.001421,0.012272,-0.290496,-0.004593,0.000401,-0.956865,0.001421,0.001421,0.012272,3.968573,0.0,0.0,0.0010064666666666,0.0,0.0,-0.0002317999999999,0.0,0.0,0.0,7.07273550819076
2023-09-08 15:20:51.220,0.0036885,-0.0623984999999999,0.007889,0.086644,0.08665,0.0686295,48.359257,-4.557297,48.1581975,50.788002,0.5950850000000001,0.5941815,0.584217,0.0263385,0.0704945,-9.7768885,0.0203735,0.0027075,0.0198935,34.006428,0.0200249999999999,0.066878,-9.7847245,0.0202905,0.0029345,0.018645,-0.3887188532928,-0.2604511211584,0.7905184055744,-0.011524407136,-0.0023964176256,-9.7470809441984,0.1310067998566627,359.4876038438145,146.23432782574437,0.001416,0.001416,0.0122735,-0.2904075,-0.004611,0.000205,-0.956892,0.001416,0.001416,0.0122735,3.968573,0.0,0.0,0.000975,0.0,0.0,-0.000122,0.0,0.0,0.0,7.083191987951892
2023-09-08 15:20:51.225,0.0035301270272,-0.0624051249152,0.0080737476352,0.0864170029056,0.0864227529088,0.068517626432,48.359257,-4.557297,48.1578261297536,50.788002,0.5948405031296,0.5939378781184,0.5840965015424,0.0226069227648,0.061901484992,-9.7788468499328,0.0201838774272,0.0028348733696,0.0177856519808,34.0063727507072,0.0145880695935999,0.0654092688,-9.7856386132992,0.0202678752895999,0.0028868756096,0.016577526464,-0.387023,-0.260151,0.792907,-0.014035,-0.015492,-9.732956,0.1365142861656306,359.4887354209756,146.23694191222393,0.001414750016,0.001414750016,0.0122738749952,-0.2903853752831999,-0.0046154999424,0.0001560006272,-0.9568987499136,0.001414750016,0.001414750016,0.0122738749952,3.968573,0.0,0.0,0.0009696000691199,0.0,0.0,-0.00012304998656,0.0,0.0,0.0,7.085806074431446
2023-09-08 15:20:51.240,0.003055,-0.062425,0.008628,0.085736,0.085741,0.068182,48.359257,-4.557297,48.156712,50.788002,0.594107,0.593207,0.583735,0.011412,0.036122,-9.784722,0.019615,0.003217,0.011462,34.006207,-0.001723,0.061003,-9.788381,0.0202,0.002744,0.010375,-0.3881521298176,-0.2601082498176,0.7945225068928,-0.0331293314688,0.0292816910335999,-9.833799555264,0.1530370270794429,359.49213021039606,146.2447843055055,0.001411,0.001411,0.012275,-0.290319,-0.004629,9e-06,-0.956919,0.001411,0.001411,0.012275,3.968573,0.0,0.0,0.0009534,0.0,0.0,-0.0001262,0.0,0.0,0.0,7.093648467713024
2023-09-08 15:20:51.265,0.0037762481536,-0.0601418808448,0.0073786281984,0.0860634991616,0.08606912416,0.0683501245696,48.359257,-4.557297,48.156562000384,50.788002,0.5951201224064,0.594216372416,0.5845562478976001,-0.0266616525312,0.0268788986624,-9.8102519346432,0.0203762480512,0.0030751253631999,0.004890141824,34.006166375104,-0.0337891679104,0.0272074615168,-9.8189352967808,0.0213537470464,0.0029052495872,0.0040981410688,-0.390034,-0.260037,0.797215,-0.064953,0.103904,-10.001871,0.1832246636298507,359.49750167597443,146.2439606807835,0.0014128749951999,0.0014122499968,0.0122768749952,-0.290325249984,-0.0046608749184,-0.0002566243199999,-0.9569171250048,0.0014128749951999,0.0014122499968,0.0122768749952,3.968573,0.0,0.0,0.00092640006912,0.0,0.0,-0.00013144998656,0.0,0.0,0.0,7.092824842991007
2023-09-08 15:20:51.280,0.004209,-0.058772,0.006629,0.08626,0.086266,0.068451,48.359257,-4.557297,48.156472,50.788002,0.595728,0.594822,0.585049,-0.049506,0.021333,-9.82557,0.020833,0.00299,0.000947,34.006142,-0.053029,0.00693,-9.837268,0.022046,0.003002,0.000332,-0.3934266394752,-0.2587383694592,0.8020648956928,-0.0303482273536,0.09692897024,-9.9718813720448,0.2013373692089713,359.500724577323,146.24346650257672,0.001414,0.001413,0.012278,-0.290329,-0.00468,-0.000416,-0.956916,0.001414,0.001413,0.012278,3.968573,0.0,0.0,0.0009102,0.0,0.0,-0.0001346,0.0,0.0,0.0,7.092330664784242
2023-09-08 15:20:51.305,0.0038265009791999,-0.0554182585856,0.0068052495487999,0.0865887491584,0.0865947491584,0.0686191245696,48.359257,-4.557297,48.1563176253952,50.788002,0.5967529973760001,0.5958426223872,0.5858771228799999,-0.0199510756608,0.0308942255231999,-9.80982004032,0.0198317525632,0.003421248896,-0.0056554830976,34.00579825088,-0.0146584732287999,0.0237149570303999,-9.8035437113344,0.0197222559488,0.003317624192,-0.0063004830208,-0.399081,-0.256574,0.810148,0.027326,0.085304,-9.921899,0.2263683988041493,359.5068480480823,146.2274953449237,0.0014152499968,0.0014148749951999,0.0122798749952,-0.2904614996608,-0.0046918749696,-0.0006403744256,-0.956875375104,0.0014152499968,0.0014148749951999,0.0122798749952,3.968573,0.0,0.0,0.00088320006912,0.0,0.0,-0.00013984998656,0.0,0.0,0.0,7.0763595071312295
2023-09-08 15:20:51.320,0.003597,-0.053406,0.006911,0.086786,0.086792,0.06872,48.359257,-4.557297,48.156225,50.788002,0.597368,0.596455,0.586374,-0.002218,0.036631,-9.80037,0.019231,0.00368,-0.009617,34.005592,0.008364,0.033786,-9.783309,0.018328,0.003507,-0.01028,-0.4029780166272,-0.2563591240832,0.8028849690112,0.0217771013248,0.0530073622016,-9.8906017414656,0.2413871190886158,359.5105221556197,146.21791258491388,0.001416,0.001416,0.012281,-0.290541,-0.004699,-0.000775,-0.956851,0.001416,0.001416,0.012281,3.968573,0.0,0.0,0.000867,0.0,0.0,-0.000143,0.0,0.0,0.0,7.066776747121395
2023-09-08 15:20:51.345,0.0026545024128,-0.0509572562688,0.0072916240256,0.0871147491584,0.0871213741567999,0.0688874995712,48.359257,-4.557297,48.1560643754112,50.788002,0.5984042473472,0.5974868723584,0.5872077478656,0.0075963498752,0.026227901632,-9.7897437772032,0.017002880704,0.003858124544,-0.0160901084288,34.006195123456,0.0094402472448,0.0259210201343999,-9.7864427419776,0.0159617560576,0.0036488746368,-0.016961232896,-0.409473,-0.256001,0.79078,0.012529,-0.00082,-9.83844,0.2611183026464743,359.5170753436253,146.18747427996982,0.0014178749951999,0.0014178749951999,0.0122866249856,-0.2907941243519999,-0.0046946250112,-0.0009549995392,-0.9567735001984,0.0014178749951999,0.0014178749951999,0.0122866249856,3.968573,0.0,0.0,0.00091149988608,0.0,0.0,3.293704959999997e-05,0.0,0.0,0.0,7.036338442177339
2023-09-08 15:20:51.360,0.002089,-0.049488,0.00752,0.087312,0.087319,0.068988,48.359257,-4.557297,48.155968,50.788002,0.599026,0.598106,0.587708,0.013485,0.019986,-9.783368,0.015666,0.003965,-0.019974,34.006557,0.010086,0.021202,-9.788323,0.014542,0.003734,-0.02097,-0.3996655831551999,-0.2588135119999999,0.7960127723264,0.014794009664,0.0188057087359999,-9.8462595333632,0.2729570936003241,359.52100728327065,146.16921117232775,0.001419,0.001419,0.01229,-0.290946,-0.004692,-0.001063,-0.956727,0.001419,0.001419,0.01229,3.968573,0.0,0.0,0.0009382,0.0,0.0,0.0001384999999999,0.0,0.0,0.0,7.018075334535268
2023-09-08 15:20:51.385,0.0009354612864,-0.0477448794624,0.007783540992,0.0869542925824,0.086961709248,0.0687759172096,48.359257,-4.557297,48.1557173756416,50.788002,0.5949628854015999,0.5940610103552,0.584027801088,0.0083675131008,0.0271184817408,-9.7892198600192,0.0139497543936,0.004727498048,-0.0273321061631999,34.006225750848,0.0101034999551999,0.030798850432,-9.7578930779008,0.013423252864,0.0049521218816,-0.0282831062784,-0.38332,-0.263501,0.804734,0.018569,0.051515,-9.859292,0.2902532127626575,359.5304610626886,146.12025921602358,0.0014208749952,0.0014208749952,0.0122912499968,-0.2913541239552,-0.004657625088,-0.0012292495744,-0.9566026253184,0.0014208749952,0.0014208749952,0.0122912499968,3.968573,0.0,0.0,0.00098269988608,0.0,0.0,0.0003144370496,0.0,0.0,0.0,6.969123378231103
2023-09-08 15:20:51.400,0.0002433333333333,-0.046699,0.0079416666666666,0.0867396666666666,0.0867473333333333,0.0686486666666666,48.359257,-4.557297,48.155567,50.788002,0.592525,0.591634,0.5818196666666666,0.005297,0.031398,-9.792731,0.01292,0.005185,-0.031747,34.006027,0.010114,0.036557,-9.739635,0.012752,0.005683,-0.032671,-0.3834085003776,-0.2623168699477333,0.8027201164074667,0.0095190863871999,0.0373603146069333,-9.8123770498304,0.3006309551051429,359.5361333690621,146.09088784173338,0.001422,0.001422,0.012292,-0.291599,-0.004637,-0.001329,-0.956528,0.001422,0.001422,0.012292,3.968573,0.0,0.0,0.0010094,0.0,0.0,0.0004199999999999,0.0,0.0,0.0,6.939752003940896
2023-09-08 15:20:51.480,-0.003448,-0.041121,0.008785,0.085595,0.085604,0.06797,48.359257,-4.557297,48.154765,50.788002,0.579523,0.57869,0.570043,-0.010255,-0.0257446666666666,-9.785691,0.0067926666666666,0.006437,-0.052543,34.00725033333334,-0.0133606666666666,-0.0346723333333333,-9.793271,0.006258,0.0062956666666666,-0.052881,-0.3838805003775999,-0.2560015366144,0.7919794497407999,-0.0387469136128,-0.0381310187264,-9.5621650498304,0.3422849868111538,359.57131297768314,145.84743807458227,0.001412,0.001412,0.012298,-0.293631,-0.004453,-0.001757,-0.955907,0.001412,0.001412,0.012298,3.968573,0.0,0.0,0.0011518,0.0,0.0,0.000983,0.0,0.0,0.0,6.696302236789791
2023-09-08 15:20:51.505,-0.0017326918912,-0.0380494453632,0.0084546883456,0.0859243741568,0.085933686656,0.0681390620672,48.359257,-4.557297,48.1545590630272,50.788002,0.5805220599424,0.5796849974528,0.5708504979328,-0.0151149875584,-0.0436017042858666,-9.783491005632,0.0048778799018666,0.0068282489984,-0.0590417333632,34.00763262402133,-0.0206964812202666,-0.0569314430165333,-9.8100322070912,0.0042286301952,0.0064871245098666,-0.0591966088319999,-0.384028,-0.254028,0.788623,-0.05383,-0.061722,-9.483974,0.3459017736339191,359.5823781967746,145.7572690724068,0.0014138749952,0.0014138749952,0.0122992499968,-0.2943828730752,-0.004371750208,-0.0018119998592,-0.955675750592,0.0014138749952,0.0014138749952,0.0122992499968,3.968573,0.0,0.0,0.00119629988608,0.0,0.0,0.0011589370496,0.0,0.0,0.0,6.606133234614333
2023-09-08 15:20:51.520,-0.0007035,-0.0362065,0.0082565,0.086122,0.0861315,0.0682405,48.359257,-4.557297,48.1544355,50.788002,0.5811215000000001,0.580282,0.5713349999999999,-0.018031,-0.054316,-9.782171,0.003729,0.007063,-0.062941,34.007862,-0.025098,-0.070287,-9.820089,0.003011,0.006602,-0.062986,-0.3883911436159999,-0.2608984043136,0.7980872903808,-0.0650309227904,-0.0516768321408,-9.6632690149888,0.3480718605419751,359.5890173735527,145.70316730176836,0.001415,0.001415,0.0123,-0.294834,-0.004323,-0.001845,-0.955537,0.001415,0.001415,0.0123,3.968573,0.0,0.0,0.001223,0.0,0.0,0.0012645,0.0,0.0,0.0,6.552031463975879
2023-09-08 15:20:51.545,0.0010118081088,-0.0331349453632,0.0079261883455999,0.0864513741568,0.086461186656,0.0684095620672,48.359257,-4.557297,48.1542295630272,50.788002,0.5821205599424,0.5812769974528,0.5721424979328,-0.0537877834624,-0.0686915881984,-9.8410889741696,-0.00323973216,0.0055242539392,-0.0602403819136,34.0078951249152,-0.056588544384,-0.0626038946688,-9.8063377852032,-0.0034939833471999,0.0050788788992,-0.0599966326527999,-0.395663,-0.272349,0.813861,-0.083699,-0.034935,-9.962092,0.3366843535158426,359.5965374253624,145.6194082485164,0.0014168749952,0.0014162499968,0.0123049999872,-0.2955333732096,-0.004232375232,-0.0017662502016,-0.955321375552,0.0014168749952,0.0014162499968,0.0123049999872,3.968573,0.0,0.0,0.00126749988608,0.0,0.0,0.0014404370496,0.0,0.0,0.0,6.468272410723927
2023-09-08 15:20:51.560,0.002041,-0.031292,0.007728,0.086649,0.086659,0.068511,48.359257,-4.557297,48.154106,50.788002,0.58272,0.581874,0.572627,-0.075242,-0.077317,-9.87644,-0.007421,0.004601,-0.05862,34.007915,-0.075483,-0.057994,-9.798087,-0.007397,0.004165,-0.058203,-0.3899097254528,-0.2667356010496,0.8088322285439999,-0.0560396319871999,-0.0478043049088,-9.8825421605888,0.3298518026568149,359.6010494872504,145.56915247348726,0.001418,0.001417,0.012308,-0.295953,-0.004178,-0.001719,-0.955192,0.001418,0.001417,0.012308,3.968573,0.0,0.0,0.0012942,0.0,0.0,0.001546,0.0,0.0,0.0,6.418016635694784
2023-09-08 15:20:51.585,0.0033447466624,-0.0297791913728,0.006787377408,0.0861299388288,0.0861396263296,0.0682566256512,48.359257,-4.557297,48.15411381248,50.7876898132992,0.582490313088,0.5816446255872,0.5726469999488,-0.066938896256,-0.070963891264,-9.838880721152,-0.0119509884032,0.0030747539072,-0.0550687590912,34.0080581246336,-0.0655749003648,-0.0607371179776,-9.824815056576,-0.0125301118592,0.00296187808,-0.0545423843711999,-0.380321,-0.25738,0.800451,-0.009941,-0.069253,-9.74996,0.3066470713582807,359.6057047574183,145.49420262378382,0.0014192499968,0.0014188749952,0.0123067500032,-0.2965779984,-0.0040798752512,-0.0015352504704,-0.954998250496,0.0014192499968,0.0014188749952,0.0123067500032,3.968573,0.0,0.0,0.00133869988608,0.0,0.0,0.0017219370495999,0.0,0.0,0.0,6.34306678599134
2023-09-08 15:20:51.600,0.004127,-0.0288715,0.006223,0.0858185,0.085828,0.068104,48.359257,-4.557297,48.1541185,50.7875025,0.5823525,0.581507,0.572659,-0.061957,-0.067152,-9.816345,-0.014669,0.002159,-0.052938,34.008144,-0.05963,-0.062383,-9.840852,-0.01561,0.00224,-0.052346,-0.3850606452224,-0.2571711241088,0.8016146299648,-0.0180854722496,-0.0614912168831999,-9.7643023111936,0.2927241375323375,359.6084979385871,145.4492324069664,0.00142,0.00142,0.012306,-0.296953,-0.004021,-0.001425,-0.954882,0.00142,0.00142,0.012306,3.968573,0.0,0.0,0.0013654,0.0,0.0,0.0018275,0.0,0.0,0.0,6.298096569173907
2023-09-08 15:20:51.640,0.006213,-0.026451,0.004718,0.084988,0.084997,0.067697,48.359257,-4.557297,48.154131,50.787003,0.581985,0.58114,0.572691,-0.0681915,-0.056938,-9.830387,-0.020378,-0.0015099999999999,-0.0495204999999999,34.008461,-0.066772,-0.0556409999999999,-9.8529835,-0.0210465,-0.0015575,-0.04911,-0.3976996452224,-0.2566141241087999,0.8047176299648,-0.0398039722496,-0.0407932168832,-9.8025483111936,0.2400693161598149,359.60569044539096,145.33240631253918,0.001408,0.001408,0.012303,-0.297929,-0.003909,-0.000974,-0.95458,0.001408,0.001408,0.012303,3.968573,0.0,0.0,0.0014366,0.0,0.0,0.0021089999999999,0.0,0.0,0.0,6.181270474746697
2023-09-08 15:20:51.665,0.0059080007808,-0.0277016217984,0.0037892523776,0.0853173741567999,0.0853263741568,0.0678669995648,48.359257,-4.557297,48.153949750464,50.787003,0.5829699974784,0.5821206224896001,0.5734922479487999,-0.0720880525248,-0.0505542663424,-9.8391632275328,-0.0239461158656,-0.0038031191295999,-0.047384567968,34.0086591244928,-0.0712357385728,-0.0514272607872,-9.8605656680896,-0.0244443038016,-0.003930931424,-0.0470875051776,-0.405599,-0.256266,0.806657,-0.053378,-0.027857,-9.826452,0.2012157151429792,359.599316306238,145.2659791882201,0.0014098749951999,0.0014098749951999,0.0123011250048,-0.2984833735808,-0.0038608751232,-0.0006321258752,-0.9544068754432,0.0014098749951999,0.0014098749951999,0.0123011250048,3.968573,0.0,0.0,0.00148109988608,0.0,0.0,0.0022849370496,0.0,0.0,0.0,6.114843350427606
2023-09-08 15:20:51.680,0.005725,-0.028452,0.003232,0.085515,0.085524,0.067969,48.359257,-4.557297,48.153841,50.787003,0.583561,0.582709,0.573973,-0.074426,-0.046724,-9.844429,-0.026087,-0.005179,-0.046103,34.008778,-0.073914,-0.048899,-9.865115,-0.026483,-0.005355,-0.045874,-0.404543370496,-0.2539574901504,0.8035358616832,-0.0537908767616,-0.0314990155392,-9.8448330784256,0.1779033953881206,359.59549179663765,145.22612264154242,0.001411,0.001411,0.0123,-0.298816,-0.003832,-0.000427,-0.954303,0.001411,0.001411,0.0123,3.968573,0.0,0.0,0.0015078,0.0,0.0,0.0023905,0.0,0.0,0.0,6.074986803749937
2023-09-08 15:20:51.705,0.0051206265472,-0.0289188738048,0.0032969998336,0.0858449991552,0.0858539991552,0.0681383745664,48.359257,-4.557297,48.1536591254656,50.787003,0.5845566224512,0.5837008724608,0.5747811229312,-0.059366663552,-0.0403921412096,-9.8401621359232,-0.0279344952703999,-0.0069071205759999,-0.0447223785344,34.0088923747072,-0.0582252901632,-0.0421452672896,-9.8462269233536,-0.0281879956352,-0.0070356206976,-0.0443721288448,-0.402784,-0.25011,0.798334,-0.054479,-0.037569,-9.875468,0.1351465293843401,359.5852143924977,145.1641359287681,0.0014128749951999,0.0014128749951999,0.0122987500032,-0.2993334986752,-0.0038063750656,-4.200098560000004e-05,-0.9541411254144,0.0014128749951999,0.0014128749951999,0.0122987500032,3.968573,0.0,0.0,0.00155229988608,0.0,0.0,0.0025664370496,0.0,0.0,0.0,6.013000090975623
2023-09-08 15:20:51.720,0.004758,-0.029199,0.003336,0.086043,0.086052,0.06824,48.359257,-4.557297,48.15355,50.787003,0.585154,0.584296,0.575266,-0.050331,-0.036593,-9.837602,-0.029043,-0.007944,-0.043894,34.008961,-0.048812,-0.038093,-9.834894,-0.029211,-0.008044,-0.043471,-0.4074726450048,-0.2545871441023999,0.800239008128,-0.068783436032,-0.0362313692928,-9.861889192064,0.1094922346495003,359.57904790791736,145.12694364720528,0.001414,0.001414,0.012298,-0.299644,-0.003791,0.000189,-0.954044,0.001414,0.001414,0.012298,3.968573,0.0,0.0,0.001579,0.0,0.0,0.002672,0.0,0.0,0.0,5.9758078094128
2023-09-08 15:20:51.745,0.0050398742784,-0.0298377483648,0.003692249088,0.0863736241535999,0.0863826241536,0.0684081245695999,48.359257,-4.557297,48.1533762504448,50.787003,0.5861621224192,0.5852997474304,0.5760803729152,-0.0702596989824,-0.031814887232,-9.831439515776,-0.0296104985472,-0.0094327461888,-0.0426552531712,34.0096403732608,-0.0717375663104,-0.0318811409024,-9.8287233907968,-0.0297259986816,-0.0097589956096,-0.042449127616,-0.415287,-0.262049,0.803414,-0.092624,-0.034002,-9.839258,0.0655536462184796,359.5647239997084,145.06656837410446,0.0014158749952,0.0014152499968,0.0123017499904,-0.3001477487104,-0.0037947499904,0.0005946239616,-0.9538852504064,0.0014158749952,0.0014152499968,0.0123017499904,3.968573,0.0,0.0,0.0016018213701485,0.0,0.0,0.0026357143786057,0.0,0.0,0.0,5.915432536311982
2023-09-08 15:20:51.760,0.005209,-0.030221,0.003906,0.086572,0.086581,0.068509,48.359257,-4.557297,48.153272,50.787003,0.586767,0.585902,0.576569,-0.082217,-0.028948,-9.827742,-0.029951,-0.010326,-0.041912,34.010048,-0.085493,-0.028154,-9.825021,-0.030035,-0.010788,-0.041836,-0.4118497353344,-0.258677735616,0.800093360832,-0.0847905915776,-0.030975737088,-9.829691709184,0.0391903131869483,359.55612959611216,145.03034296294624,0.001417,0.001416,0.012304,-0.30045,-0.003797,0.000838,-0.95379,0.001417,0.001416,0.012304,3.968573,0.0,0.0,0.0016155142857142,0.0,0.0,0.0026139428571428,0.0,0.0,0.0,5.879207125153755
2023-09-08 15:20:51.785,0.00584674836736,-0.0298816258688,0.00446462356992,0.08658774995968,0.08659649996032,0.06852137496832,48.359257,-4.557297,48.1529420008448,50.787003,0.58730862361344,0.5864412486195201,0.57708537367808,-0.0768245138048,-0.022726140928,-9.8214063912192,-0.0284466288511999,-0.0111559978752,-0.0413701263872,34.0097142508544,-0.0753099010688,-0.021994640768,-9.8180966427264,-0.0283400043392,-0.0112123739136,-0.0414147510783999,-0.406121,-0.253059,0.794559,-0.071735,-0.025932,-9.813748,224.99857898974287,359.540767204558,144.9727966617167,0.0014182499967999,0.0014178749951999,0.0123027500032,-0.3009299987711999,-0.0038194999424,0.00121299904,-0.9536381253888,0.0014182499967999,0.0014178749951999,0.0123027500032,3.968573,0.0,0.0,0.0016383356558628,0.0,0.0,0.0025776572357485,0.0,0.0,0.0,5.821660823924219
2023-09-08 15:20:51.800,0.0062294,-0.029678,0.0047998,0.0865972,0.0866058,0.0685288,48.359257,-4.557297,48.152744,50.787003,0.5876336,0.5867648,0.5773952,-0.073589,-0.018993,-9.817605,-0.027544,-0.011654,-0.041045,34.009514,-0.0692,-0.018299,-9.813942,-0.027323,-0.011467,-0.041162,-0.4055182786784,-0.254548693856,0.7945033122624,-0.074351573664,-0.023298082512,-9.8095992635488,359.97513363169134,359.531549706701,144.93826864526872,0.001419,0.001419,0.012302,-0.301218,-0.003833,0.001438,-0.953547,0.001419,0.001419,0.012302,3.968573,0.0,0.0,0.0016520285714285,0.0,0.0,0.0025558857142857,0.0,0.0,0.0,5.78713280747624
2023-09-08 15:20:51.945,0.00992834836736,-0.0277096258688,0.00803982356992,0.0866885499596799,0.08669569996032,0.06860057496832,48.359257,-4.557297,48.1508300008448,50.787003,0.5907750236134399,0.58989244861952,0.58039017367808,-0.0787872477056,-0.0083536296959999,-9.79626970941696,-0.0042932602624,-0.0083081264768,-0.04057955020544,34.01047389957632,-0.07725764644352,-0.0081294294886399,-9.7969190075136,-0.0038250353715199,-0.00817840145152,-0.0406334752332799,-0.399692,-0.268949,0.793965,-0.099645,0.002163,-9.769495,359.86842924191086,359.4520017139304,144.60392822395664,0.0014171875008,0.0014171875008,0.0123029062496,-0.3040019987712,-0.0042063748352,0.00254815576,-0.9526579691424,0.0014171875008,0.0014171875008,0.0123029062496,3.968573,0.0,0.0,0.00178439279872,0.0,0.0,0.00234542866432,0.0,0.0,0.0,5.4527923861641625
2023-09-08 15:20:51.960,0.010311,-0.027506,0.008375,0.086698,0.086705,0.068608,48.359257,-4.557297,48.150632,50.787003,0.5911,0.590216,0.5807,-0.0793249999999999,-0.0072529999999999,-9.7940626,-0.001888,-0.007962,-0.0405314,34.0105732,-0.0780912,-0.0070773999999999,-9.795158,-0.0013941999999999,-0.0078382,-0.0405788,-0.4008950051327999,-0.266554614784,0.7940745004672,-0.0913679646848,-0.000947638272,-9.7715826339072,359.8573908047919,359.443772572487,144.56934112098395,0.001417,0.001417,0.012303,-0.30429,-0.004245,0.002663,-0.952566,0.001417,0.001417,0.012303,3.968573,0.0,0.0,0.0017980857142857,0.0,0.0,0.0023236571428571,0.0,0.0,0.0,5.418205283191469
2023-09-08 15:20:51.985,0.0112768308608,-0.0267380852992,0.0086029160832,0.0865125838079999,0.086519583808,0.0685202918912,48.359257,-4.557297,48.1499678350336,50.7872111244672,0.5913381243904,0.5904528743936,0.58102291584,-0.0802212477055999,-0.0054186296959999,-9.79038410941696,0.0021207397375999,-0.0073851264768,-0.04045115020544,34.01073869957632,-0.07948044644352,-0.0053240294886399,-9.7922230075136,0.00265716462848,-0.00727120145152,-0.0404876752332799,-0.4029,-0.262564,0.794257,-0.077573,-0.006132,-9.775062,359.86387237325647,359.43478432008584,144.5111144341145,0.0014188749952,0.0014182499967999,0.0123023750016,-0.3047737487616,-0.004335624768,0.002634875072,-0.9524110003968,0.0014188749952,0.0014182499967999,0.0123023750016,3.968573,0.0,0.0,0.0018209070844342,0.0,0.0,0.0022873715214628,0.0,0.0,0.0,5.359978596322009
2023-09-08 15:20:52.000,0.0118563333333333,-0.0262773333333333,0.0087396666666666,0.0864013333333333,0.0864083333333333,0.0684676666666666,48.359257,-4.557297,48.14956933333333,50.787336,0.5914809999999999,0.590595,0.5812166666666667,-0.080759,-0.004318,-9.788177,0.004526,-0.007039,-0.040403,34.010838,-0.080314,-0.004272,-9.790462,0.005088,-0.006931,-0.040433,-0.4040583799423999,-0.2631010022912,0.7951135036544,-0.0776579378624,-0.0078041321344,-9.7764048807296,359.8677613408838,359.4293913318292,144.47617818349568,0.00142,0.001419,0.012302,-0.305064,-0.00439,0.002618,-0.952318,0.00142,0.001419,0.012302,3.968573,0.0,0.0,0.0018346,0.0,0.0,0.0022656,0.0,0.0,0.0,5.325042345703196
2023-09-08 15:20:52.065,0.0143674975274666,-0.0242807519658666,0.0093322494165333,0.0859192504746666,0.0859262504746666,0.0682396252245333,48.359257,-4.557297,48.14784250170027,50.7878771244672,0.5921001243903999,0.5912108743936,0.5820562491733333,-0.0898679285312,-0.0077053091648,-9.7859028147392,0.0133538038079999,-0.0041530028416,-0.039655500736,34.0114173119296,-0.0883106171264,-0.0080826212479999,-9.7863572540416,0.0135485541695999,-0.003908502976,-0.0395782508416,-0.409078,-0.265428,0.798825,-0.078026,-0.01505,-9.782224,359.91398824647644,359.41691518812445,144.33214389759075,0.0014135000064,0.0014125000064,0.0122995625024,-0.3062583738239999,-0.0046142497792,0.00227268784,-0.9519345003776,0.0014135000064,0.0014125000064,0.0122995625024,3.968573,0.0,0.0,0.0018939356558628,0.0,0.0,0.0021712572357485,0.0,0.0,0.0,5.181008059798273
2023-09-08 15:20:52.080,0.014947,-0.02382,0.009469,0.085808,0.085815,0.068187,48.359257,-4.557297,48.147444,50.788002,0.592243,0.591353,0.58225,-0.09197,-0.008487,-9.785378,0.015391,-0.003487,-0.039483,34.011551,-0.090156,-0.008962,-9.78541,0.015501,-0.003211,-0.039381,-0.407757994368,-0.2655033753216,0.8017507624832,-0.0832613973376,-0.0133088675711999,-9.783397755008,359.9246560499403,359.4140360629197,144.29890504168222,0.001412,0.001411,0.012299,-0.306534,-0.004666,0.002193,-0.951846,0.001412,0.001411,0.012299,3.968573,0.0,0.0,0.0019076285714285,0.0,0.0,0.0021494857142857,0.0,0.0,0.0,5.147769203889737
2023-09-08 15:20:52.105,0.0152732491648,-0.0236940628224,0.0094511875456,0.0861364366592,0.0861434366592,0.0683554370688,48.359257,-4.557297,48.147251812992,50.788002,0.5932583099008,0.5923645599104,0.5830715603968001,-0.0888350080256,-0.009352622784,-9.7867948713728,0.0172903701376,-0.002333877952,-0.0394661250432,34.011376625446395,-0.0892303773696,-0.0092451242752,-9.7869543710464,0.0175641197184,-0.0022122525568,-0.0395303746176,-0.405558,-0.265629,0.806627,-0.091987,-0.010407,-9.785354,359.9508329921922,359.4127111014104,144.24322084851983,0.0014138749952,0.0014128749951999,0.0122977500032,-0.3069952488192,-0.0047459997951999,0.0019817505408,-0.9516972503808,0.0014138749952,0.0014128749951999,0.0122977500032,3.968573,0.0,0.0,0.0019304499415771,0.0,0.0,0.0021132000928914,0.0,0.0,0.0,5.092085010727345
2023-09-08 15:20:52.120,0.015469,-0.0236185,0.0094405,0.0863335,0.0863405,0.0684565,48.359257,-4.557297,48.1471365,50.788002,0.5938675,0.5929715,0.5835645,-0.086954,-0.009872,-9.787645,0.01843,-0.001642,-0.039456,34.011272,-0.088675,-0.009415,-9.787881,0.018802,-0.001613,-0.03962,-0.4037321172096,-0.2668848803584,0.8072271900608,-0.0898033656831999,-0.0124588212544,-9.787685572448,359.9665392647644,359.4119161190777,144.20981010453937,0.001415,0.001414,0.012297,-0.307272,-0.004794,0.001855,-0.951608,0.001415,0.001414,0.012297,3.968573,0.0,0.0,0.0019441428571428,0.0,0.0,0.0020914285714285,0.0,0.0,0.0,5.058674266746891
2023-09-08 15:20:52.160,0.015991,-0.023417,0.009412,0.086859,0.086866,0.068726,48.359257,-4.557297,48.146829,50.788002,0.595492,0.59459,0.584879,-0.0824165,-0.011993,-9.7934425,0.019588,-5.800000000000011e-05,-0.0390219999999999,34.011251,-0.0823655,-0.011789,-9.7937875,0.0197325,2.649999999999983e-05,-0.0389285,-0.3988631172096,-0.2702338803584,0.8088276900608,-0.0839803656832,-0.0179303212544,-9.793903072448,0.0122612968157996,359.4144371333763,144.12037139271945,0.001417,0.001417,0.012303,-0.308013,-0.004894,0.001472,-0.951368,0.001417,0.001417,0.012303,3.968573,0.0,0.0,0.0019806571428571,0.0,0.0,0.0020333714285714,0.0,0.0,0.0,4.969235554926968
2023-09-08 15:20:52.185,0.0161884102089142,-0.0233953929124571,0.0091141436196571,0.0866500719634285,0.0866572505344,0.0686068931620571,48.359257,-4.557297,48.14684971423268,50.78791280379977,0.5937759329645714,0.5928812543744,0.5833312361051429,-0.07958056976,-0.0133186216064,-9.797065928224,0.0203117481472,0.0009319974655999,-0.0387507506943999,34.0112378750336,-0.0784220725952,-0.0132727462016,-9.7974790530496,0.0203140610112,0.0010511848767999,-0.0384963136064,-0.39582,-0.272327,0.809828,-0.080341,-0.02135,-9.797789,0.0410523523158327,359.41794649088746,144.0659047317548,0.0014188749952,0.0014188749952,0.0123023750016,-0.3084642488448,-0.0049421248768,0.0012257506304,-0.9512223753728,0.0014188749952,0.0014188749952,0.0123023750016,3.968573,0.0,0.0,0.0020034785130057,0.0,0.0,0.0019970858071771,0.0,0.0,0.0,4.914768893962332
2023-09-08 15:20:52.200,0.0163068571428571,-0.0233824285714285,0.0089354285714285,0.0865247142857142,0.086532,0.0685354285714285,48.359257,-4.557297,48.14686214285714,50.78785928571428,0.5927462857142858,0.5918559999999999,0.5824025714285714,-0.077879,-0.014114,-9.79924,0.020746,0.001526,-0.038588,34.01123,-0.076056,-0.014163,-9.799694,0.020663,0.001666,-0.038237,-0.395887500288,-0.2711464949632,0.8083184935594666,-0.0834173881258666,-0.0201764949930666,-9.797791125009066,0.0583271035443178,359.42005211976857,144.03322451208004,0.00142,0.00142,0.012302,-0.308735,-0.004971,0.001078,-0.951135,0.00142,0.00142,0.012302,3.968573,0.0,0.0,0.0020171714285714,0.0,0.0,0.0019753142857142,0.0,0.0,0.0,4.882088674287559
2023-09-08 15:20:52.305,0.0171359816374857,-0.0232916786267428,0.0076844293339428,0.0856472148205714,0.0856552505344,0.0680351788763428,48.359257,-4.557297,48.14694914280411,50.787484660942624,0.5855387901074286,0.5846792543743999,0.5759019503908572,-0.0828244969856,-0.0154947491584,-9.806459620599467,0.0136506293248,0.0019556247381333,-0.0364258763178666,34.01215487443627,-0.0854289942869333,-0.0167976233941333,-9.806072746112,0.0135343793450666,0.0019967497983999,-0.0363400011562666,-0.39636,-0.262883,0.797752,-0.104952,-0.011962,-9.797806,0.1482670986143769,359.43724800511364,143.81729833662476,0.0014147500032,0.0014147500032,0.0122976250026666,-0.3105226239104,-0.0050698749397333,0.0002948754773333,-0.9505522503552,0.0014147500032,0.0014147500032,0.0122976250026666,3.968573,0.0,0.0,0.0021130213701485,0.0,0.0,0.0018229143786057,0.0,0.0,0.0,4.666162498832279
2023-09-08 15:20:52.320,0.0172544285714285,-0.0232787142857142,0.0075057142857142,0.0855218571428571,0.08553,0.0679637142857142,48.359257,-4.557297,48.14696157142857,50.787431142857145,0.5845091428571428,0.583654,0.5749732857142857,-0.083531,-0.015692,-9.807491,0.012637,0.002017,-0.036117,34.012287,-0.086768,-0.017174,-9.806984,0.012516,0.002044,-0.036069,-0.3987423851648,-0.2639453795327999,0.7979513133504,-0.0995971646528,-0.0137490701248,-9.7997875084544,0.1611157319907875,359.4397045721416,143.7864515897172,0.001414,0.001414,0.012297,-0.310778,-0.005084,0.000183,-0.950469,0.001414,0.001414,0.012297,3.968573,0.0,0.0,0.0021267142857142,0.0,0.0,0.0018011428571428,0.0,0.0,0.0,4.635315751924708
2023-09-08 15:20:52.385,0.0177676959232,-0.0232225357696,0.0067312864768,0.084978643392,0.0849872505344,0.0676540360191999,48.359257,-4.557297,48.1470154285184,50.7871992323712,0.580047361536,0.5792112543743999,0.570949093248,-0.0721868861696,-0.0181424975871999,-9.8133304317504,0.0052229448,0.0011427508608,-0.034037002048,34.0122813125056,-0.074434262144,-0.0192726854336,-9.8125967444736,0.0049256324736,0.0010966259328,-0.0338443771903999,-0.409066,-0.268549,0.798815,-0.076393,-0.021493,-9.808374,0.1791782086976767,359.4473857800195,143.6605728860692,0.0014188749952,0.0014188749952,0.0123002499968,-0.3118212489728,-0.0050693750144,1.806266240000001e-05,-0.9501269378368,0.0014188749952,0.0014188749952,0.0123002499968,3.968573,0.0,0.0,0.0021860499415771,0.0,0.0,0.0017068000928914,0.0,0.0,0.0,4.509437048276709
2023-09-08 15:20:52.400,0.0178861428571428,-0.0232095714285714,0.0065525714285714,0.0848532857142857,0.084862,0.0675825714285714,48.359257,-4.557297,48.14702785714286,50.787145714285714,0.5790177142857142,0.578186,0.5700204285714287,-0.069569,-0.018708,-9.814678,0.003512,0.000941,-0.033557,34.01228,-0.071588,-0.019757,-9.813892,0.003174,0.000878,-0.033331,-0.4057382358016,-0.2698360054911999,0.7924508478464001,-0.0801985162368,-0.0174782328704,-9.8051051110528,0.1833464944418634,359.4491583757612,143.63152380191383,0.00142,0.00142,0.012301,-0.312062,-0.005066,-2e-05,-0.950048,0.00142,0.00142,0.012301,3.968573,0.0,0.0,0.0021997428571428,0.0,0.0,0.0016850285714285,0.0,0.0,0.0,4.480387964121348
2023-09-08 15:20:52.420,0.0180440714285714,-0.0231922857142857,0.0063142857142857,0.0846861428571428,0.084695,0.0674872857142857,48.359257,-4.557297,48.14704442857143,50.787074357142856,0.5776448571428572,0.576819,0.5687822142857143,-0.0832895,-0.0197735,-9.809399,0.001288,0.0005835,-0.0329789999999999,34.0123215,-0.0842985,-0.0201055,-9.8088765,0.0009299999999999,0.0005685,-0.032919,-0.4013012358016,-0.2715520054911999,0.7839653478464,-0.0852725162368,-0.0121252328704,-9.8007466110528,0.1805962970252354,359.4506194181388,143.59459667201764,0.0014135,0.001413,0.0122999999999999,-0.3123685,-0.0050465,4.999999999999986e-07,-0.9499475,0.0014135,0.001413,0.0122999999999999,3.968573,0.0,0.0,0.002218,0.0,0.0,0.001656,0.0,0.0,0.0,4.443460834225164
2023-09-08 15:20:52.425,0.0180835530660571,-0.0231879643410285,0.0062547150482285,0.0846443576777142,0.0846532505344,0.0674634645906285,48.359257,-4.557297,48.14704857137554,50.787056518085485,0.5773016472502858,0.5764772543744,0.5684726646765714,-0.0867195810944,-0.0200398715904,-9.8080792668928,0.0007320071168,0.000494126144,-0.0328345018496,34.0123318748672,-0.0874760843264,-0.0201926238848,-9.8076226410496,0.0003690071807999,0.0004911259904,-0.0328160013184,-0.400192,-0.271981,0.781844,-0.086541,-0.010787,-9.799657,0.1799087564717102,359.4509846740579,143.5853650077104,0.0014118750208,0.0014112500224,0.0122997500032,-0.3124451240192,-0.0050416250624,5.624934399999997e-06,-0.9499223753216,0.0014118750208,0.0014112500224,0.0122997500032,3.968573,0.0,0.0,0.00222654989056,0.0,0.0,0.0016505167368533,0.0,0.0,0.0,4.434229169917927
2023-09-08 15:20:52.440,0.018202,-0.023175,0.006076,0.084519,0.084528,0.067392,48.359257,-4.557297,48.147061,50.787003,0.576272,0.575452,0.567544,-0.09701,-0.020839,-9.80412,-0.000936,0.000226,-0.032401,34.012363,-0.097009,-0.020454,-9.803861,-0.001314,0.000259,-0.032507,-0.4023317591296,-0.269577239744,0.788110276736,-0.0773065856,-0.0109606257408,-9.8094662918528,0.1778460996086075,359.4520804605164,143.55766954212146,0.001407,0.001406,0.012299,-0.312675,-0.005027,2.1e-05,-0.949847,0.001407,0.001406,0.012299,3.968573,0.0,0.0,0.0022521999999999,0.0,0.0,0.0016340666666666,0.0,0.0,0.0,4.406533704328979
2023-09-08 15:20:52.465,0.01753012672,-0.0235837489536,0.0059178754048,0.0848483741568,0.0848573741568,0.0675626245632,48.359257,-4.557297,48.146886000448,50.787003,0.5772369975296,0.5764138725376,0.5683327479808,-0.0823250375935999,-0.0165821358976,-9.8105781084672,-0.0034278686208,-3.0249344e-05,-0.0320878758015999,34.0118292513664,-0.08055591712,-0.0158908866816,-9.8108997319808,-0.0036721189632,-8.287412479999996e-05,-0.0319651263872,-0.405898,-0.265571,0.798554,-0.061916,-0.01125,-9.825815,0.1696098523884487,359.4528682754679,143.51265666057478,0.0014088749952,0.0014078749952,0.0122977500032,-0.3130481240448,-0.0049976250752,8.91248256e-05,-0.9497238753152,0.0014088749952,0.0014078749952,0.0122977500032,3.968573,0.0,0.0,0.00229494989056,0.0,0.0,0.0016066500701866,0.0,0.0,0.0,4.361520822782296
2023-09-08 15:20:52.480,0.017127,-0.023829,0.005823,0.085046,0.085055,0.067665,48.359257,-4.557297,48.146781,50.787003,0.577816,0.576991,0.568806,-0.073514,-0.014028,-9.814453,-0.004923,-0.000184,-0.0319,34.011509,-0.070684,-0.013153,-9.815123,-0.005087,-0.000288,-0.03164,-0.4055814986496,-0.2644561202432,0.8061267823104,-0.076977939264,-0.0110291240576,-9.8133908219904,0.1646680703205985,359.45334096766567,143.48564874727353,0.00141,0.001409,0.012297,-0.313272,-0.00498,0.00013,-0.94965,0.00141,0.001409,0.012297,3.968573,0.0,0.0,0.0023206,0.0,0.0,0.0015902,0.0,0.0,0.0,4.334512909481049
2023-09-08 15:20:52.505,0.0172943433216,-0.0240294682367999,0.0060348744576,0.084981156416,0.0849900001664,0.067636875072,48.3592571562496,-4.5572971562496,48.146664594048,50.787003,0.5782375614208,0.577410530176,0.569241155136,-0.0827008514816,-0.0149761225728,-9.8075892675712,-0.007082369472,-0.0005502490623999,-0.0310656271359999,34.011518374976,-0.0840270908416,-0.0145454964352,-9.806679271616,-0.0073863691135999,-0.0006073741824,-0.0309600017408,-0.405054,-0.262598,0.818748,-0.102081,-0.010661,-9.792684,0.1511677868336426,359.45341258720674,143.44310673989287,0.0014112499968,0.0014108749952,0.0122957500032,-0.3136251240959999,-0.0049431250944,0.0002431247104,-0.9495337502976,0.0014112499968,0.0014108749952,0.0122957500032,3.968573,0.0,0.0,0.0023633498905599,0.0,0.0,0.00156278340352,0.0,0.0,0.0,4.291970902100388
2023-09-08 15:20:52.520,0.01739475,-0.0241497499999999,0.006162,0.08494225,0.084951,0.06762,48.35925725,-4.55729725,48.14659475,50.787003,0.5784905,0.57766225,0.56950225,-0.088213,-0.015545,-9.803471,-0.008378,-0.00077,-0.030565,34.011524,-0.092033,-0.015381,-9.801613,-0.008766,-0.000799,-0.030552,-0.4039418702549333,-0.2638071301589333,0.8166239909376001,-0.1003702427008,-0.0097537461290666,-9.7932142522624,0.1430675614441665,359.4534555592247,143.41758136121197,0.001412,0.001412,0.012295,-0.313837,-0.004921,0.000311,-0.949464,0.001412,0.001412,0.012295,3.968573,0.0,0.0,0.002389,0.0,0.0,0.0015463333333333,0.0,0.0,0.0,4.266445523419492
2023-09-08 15:20:52.625,0.0180975933216,-0.0249917182368,0.0070518744575999,0.084669906416,0.0846780001664,0.067501875072,48.3592579062496,-4.5572979062496,48.146105844048,50.787003,0.5802610614208,0.579424280176,0.571329905136,-0.0772680691712,-0.014747656736,-9.8013460637952,-0.0110548421184,-0.000724062528,-0.028340313856,34.01126150016,-0.0784282895424,-0.013310532512,-9.80133409392,-0.0111783735296,-0.0008593749632,-0.0282511889024,-0.396157,-0.272271,0.801756,-0.088395,-0.003403,-9.796926,0.0627031176887011,359.4532550241187,143.25003428009484,0.0014076250026666,0.0014076250026666,0.0122976249984,-0.3152291241514666,-0.0047005001344,0.0009847495893333,-0.9490037502805332,0.0014076250026666,0.0014076250026666,0.0122976249984,3.968573,0.0,0.0,0.0025685498905599,0.0,0.0,0.00143118340352,0.0,0.0,0.0,4.098898442302357
2023-09-08 15:20:52.640,0.018198,-0.025112,0.007179,0.084631,0.084639,0.067485,48.359258,-4.557298,48.146036,50.787003,0.580514,0.579676,0.571591,-0.0757045,-0.01463375,-9.8010425,-0.01143725,-0.0007175,-0.0280225,34.011224,-0.07648475,-0.01301475,-9.80129425,-0.011523,-0.000868,-0.0279225,-0.3972880048256,-0.2722271248128,0.8033707568896,-0.0801040896256,-0.0076472681088,-9.799552511206398,0.0512224268846955,359.45322637610667,143.22609886607924,0.001407,0.001407,0.012298,-0.315428,-0.004669,0.001081,-0.948938,0.001407,0.001407,0.012298,3.968573,0.0,0.0,0.0025942,0.0,0.0,0.0014147333333333,0.0,0.0,0.0,4.07496302828676
2023-09-08 15:20:52.665,0.0179161257216,-0.0250176252416,0.007297749696,0.0849597491584,0.0849677491584,0.0676556245632,48.359258,-4.557298,48.145842250496,50.787003,0.5814864975103999,0.58064474752,0.572384747968,-0.0730985691712,-0.014443906736,-9.8005365637952,-0.0120745921184,-0.000706562528,-0.027492813856,34.01116150016,-0.0732455395424,-0.012521782512,-9.80122784392,-0.0120973735296,-0.0008823749632,-0.0273746889024,-0.399173,-0.272154,0.806062,-0.066286,-0.014721,-9.80393,0.0323864875898977,359.45304732725407,143.1878540311613,0.0014088749952,0.0014082499968,0.0122967500032,-0.3157448741888,-0.0046183751296,0.0012391245951999,-0.9488323752704,0.0014088749952,0.0014082499968,0.0122967500032,3.968573,0.0,0.0,0.00263694989056,0.0,0.0,0.0013873167368533,0.0,0.0,0.0,4.036718193368813
2023-09-08 15:20:52.680,0.017747,-0.024961,0.007369,0.085157,0.085165,0.067758,48.359258,-4.557298,48.145726,50.787003,0.58207,0.581226,0.572861,-0.071535,-0.01433,-9.800233,-0.012457,-0.0007,-0.027175,34.011124,-0.071302,-0.012226,-9.801188,-0.012442,-0.000891,-0.027046,-0.4016772606848,-0.2743653844352,0.8032299879168,-0.072833527936,-0.0153757527936,-9.803744374208,0.0210848468608142,359.4529398972091,143.16490697355928,0.00141,0.001409,0.012296,-0.315935,-0.004588,0.001334,-0.948769,0.00141,0.001409,0.012296,3.968573,0.0,0.0,0.0026625999999999,0.0,0.0,0.0013708666666666,0.0,0.0,0.0,4.013771135766802
2023-09-08 15:20:52.705,0.0179826243968,-0.0250709997184,0.0074602497664,0.0854857491584,0.0854937491584,0.0679273745664,48.359258,-4.557298,48.1455316254976,50.787003,0.5830537474816,0.5822059974912001,0.5736616229504,-0.0837830936448,-0.0103243852544,-9.8015761215616,-0.0115107524224,-0.0006275001856,-0.0269550005632,34.0114858740736,-0.084764465536,-0.0101941302016,-9.8017923734528,-0.0114070026496,-0.000606625728,-0.0269916251392,-0.405851,-0.278051,0.79851,-0.083746,-0.016467,-9.803435,225.00407216219105,359.45336961445537,143.12705604611708,0.0014118749952,0.0014108749952,0.0122947500032,-0.3162487491968,-0.004538000128,0.0014702496512,-0.9486640002688,0.0014118749952,0.0014108749952,0.0122947500032,3.968573,0.0,0.0,0.00270534989056,0.0,0.0,0.0013434500701866,0.0,0.0,0.0,3.9759202083245953
2023-09-08 15:20:52.720,0.018124,-0.025137,0.007515,0.085683,0.085691,0.068029,48.359258,-4.557298,48.145415,50.787003,0.583644,0.582794,0.574142,-0.091132,-0.007921,-9.802382,-0.010943,-0.000584,-0.026823,34.011703,-0.092842,-0.008975,-9.802155,-0.010786,-0.000436,-0.026959,-0.406923504576,-0.2768476198655999,0.8016427633664001,-0.0713551971328,-0.0132573613055999,-9.806301887232,359.9947860840643,359.45362744656325,143.10434533461395,0.001413,0.001412,0.012294,-0.316437,-0.004508,0.001552,-0.948601,0.001413,0.001412,0.012294,3.968573,0.0,0.0,0.002731,0.0,0.0,0.001327,0.0,0.0,0.0,3.953209496821472
2023-09-08 15:20:52.745,0.018227124736,-0.0248801256576,0.0074418751872,0.0860123741567999,0.0860203741568,0.0681983745664,48.359258,-4.557298,48.1452350004608,50.787003,0.5846396224512,0.5837852474624,0.5749482479360001,-0.0850676405248,-0.0101409943168,-9.8034363723008,-0.009330504128,-0.0003040007168,-0.0264642509184,34.0109211270016,-0.0846445209856,-0.0104893711232,-9.803251872192,-0.0090510044416,-0.0001503757311999,-0.026555876032,-0.408711,-0.274842,0.806864,-0.050704,-0.007908,-9.81108,359.9823242839225,359.4547375494494,143.0662437387781,0.0014142499968,0.0014138749952,0.0122977499904,-0.3167532491904,-0.004464250112,0.0016538747391999,-0.9484960002688,0.0014142499968,0.0014138749952,0.0122977499904,3.968573,0.0,0.0,0.00277549988608,0.0,0.0,0.001291062592,0.0,0.0,0.0,3.9151079009856176
2023-09-08 15:20:52.760,0.018289,-0.024726,0.007398,0.08621,0.086218,0.0683,48.359258,-4.557298,48.145127,50.787003,0.585237,0.58438,0.575432,-0.081429,-0.011473,-9.804069,-0.008363,-0.000136,-0.026249,34.010452,-0.079726,-0.011398,-9.80391,-0.00801,2.1e-05,-0.026314,-0.4052036100352,-0.2726527406592,0.8050534922752,-0.0671264450688,-0.0134197735168,-9.8082967381248,359.97484715279376,359.45540361572813,143.04338262521205,0.001415,0.001415,0.0123,-0.316943,-0.004438,0.001715,-0.948433,0.001415,0.001415,0.0123,3.968573,0.0,0.0,0.0028022,0.0,0.0,0.0012695,0.0,0.0,0.0,3.892246787419566
2023-09-08 15:20:52.785,0.0186614990464,-0.0242514178816,0.0072388337408,0.0860054171904,0.0860134171904,0.068202083584,48.359258,-4.557298,48.145072833472,50.787003,0.5854503327872,0.5845920827904,0.5757347075584001,-0.079654004544,-0.012644872,-9.8041364998272,-0.006366130112,2.8999577600000013e-05,-0.0264577494656,34.010490124902404,-0.0802897485568,-0.0127192466175999,-9.8050768720128,-0.0061206298368,-3.33748608e-05,-0.0264146247424,-0.399358,-0.269004,0.802036,-0.094497,-0.022606,-9.803658,359.96668252511466,359.4563346697617,143.0068924690497,0.0014168749952,0.0014168749952,0.0122993750016,-0.3172454992256,-0.00440675008,0.0017812498304,-0.9483317502592,0.0014168749952,0.0014168749952,0.0122993750016,3.968573,0.0,0.0,0.00284669988608,0.0,0.0,0.001233562592,0.0,0.0,0.0,3.855756631257208
2023-09-08 15:20:52.800,0.018885,-0.0239666666666666,0.0071433333333333,0.0858826666666666,0.0858906666666666,0.0681433333333333,48.359258,-4.557298,48.14504033333333,50.787003,0.5855783333333333,0.5847193333333334,0.5759163333333334,-0.078589,-0.013348,-9.804177,-0.005168,0.000128,-0.026583,34.010513,-0.080628,-0.013512,-9.805777,-0.004987,-6.6e-05,-0.026475,-0.3981332447744,-0.2690628752512,0.8026911277952,-0.0899197304704,-0.0182001062016,-9.80378925056,359.9617837150648,359.4568933059955,142.9849982258882,0.001418,0.001418,0.012299,-0.317427,-0.004388,0.001821,-0.948271,0.001418,0.001418,0.012299,3.968573,0.0,0.0,0.0028734,0.0,0.0,0.001212,0.0,0.0,0.0,3.833862388095724
2023-09-08 15:20:52.865,0.0198534990464,-0.0227327512149333,0.0067295004074666,0.0853507505237333,0.0853587505237333,0.0678887502506666,48.359258,-4.557298,48.14489950013866,50.787003,0.5861329994538667,0.5852707494570667,0.5767033742250667,-0.0691315093119999,-0.0047460709695999,-9.8105859936896,0.0009273689983999,0.0002279374016,-0.0262271253504,34.0097752507264,-0.0702670102016,-0.0037335721279999,-9.8094519338816,0.0010718065343999,0.0002809371584,-0.0261857502848,-0.392826,-0.269318,0.80553,-0.070085,0.000892,-9.804358,359.9616440567397,359.4613623723972,142.89152025365254,0.0014115000064,0.0014106875072,0.0122957500032,-0.3182004992384,-0.0043498125376,0.001812875008,-0.9480118127552,0.0014115000064,0.0014106875072,0.0122957500032,3.968573,0.0,0.0,0.00298909988608,0.0,0.0,0.001118562592,0.0,0.0,0.0,3.740384415860064
2023-09-08 15:20:52.880,0.020077,-0.022448,0.006634,0.085228,0.085236,0.06783,48.359258,-4.557298,48.144867,50.787003,0.586261,0.585398,0.576885,-0.066949,-0.002761,-9.812065,0.002334,0.000251,-0.026145,34.009605,-0.067876,-0.001477,-9.8103,0.00247,0.000361,-0.026119,-0.3943443814784,-0.2680392445439999,0.7980667181568,-0.0777402826623999,-0.0028628910208,-9.8091883956096,359.96161182772624,359.4623937008287,142.86994830062594,0.00141,0.001409,0.012295,-0.318379,-0.004341,0.001811,-0.947952,0.00141,0.001409,0.012295,3.968573,0.0,0.0,0.0030158,0.0,0.0,0.001097,0.0,0.0,0.0,3.718812462833455
2023-09-08 15:20:52.905,0.020206687168,-0.0220555010048,0.006229313536,0.0855570616575999,0.0855650616576,0.0679993745664,48.359258,-4.557298,48.1447020004224,50.787003,0.5872559974528,0.5863892474624,0.577692810432,-0.077583347776,-0.0084753603712,-9.813421246528,0.0043364948736,0.0004716244352,-0.0258218758272,34.009395625536,-0.078054098944,-0.008098858048,-9.8134649918976,0.0046368694528,0.0005222495872,-0.0257990008192,-0.396875,-0.265908,0.785628,-0.090499,-0.009121,-9.817239,359.96906025999493,359.46432742843695,142.83431757895613,0.0014118749952,0.0014108749952,0.0122943750016,-0.3186733742464,-0.0043453749888,0.001745375168,-0.9478532502528,0.0014118749952,0.0014108749952,0.0122943750016,3.968573,0.0,0.0,0.00306029988608,0.0,0.0,0.001061062592,0.0,0.0,0.0,3.6831817411636503
2023-09-08 15:20:52.920,0.0202845,-0.02182,0.0059865,0.0857545,0.0857625,0.068101,48.359258,-4.557298,48.144603,50.787003,0.587853,0.586984,0.5781775,-0.083964,-0.011904,-9.814235,0.005538,0.000604,-0.025628,34.00927,-0.084161,-0.012072,-9.815364,0.005937,0.000619,-0.025607,-0.3991201345792,-0.2693321396095999,0.7888466387328,-0.0821777144959999,-0.009248500544,-9.8194155092864,359.973529349865,359.46548767292245,142.81293900001043,0.001413,0.001412,0.012294,-0.31885,-0.004348,0.001706,-0.947794,0.001413,0.001412,0.012294,3.968573,0.0,0.0,0.003087,0.0,0.0,0.0010395,0.0,0.0,0.0,3.66180316221795
2023-09-08 15:20:52.945,0.020414187168,-0.0214275010048,0.005581813536,0.0860835616575999,0.0860915616576,0.0682703745664,48.359258,-4.557298,48.1444380004224,50.787003,0.5888479974528,0.5879752474624,0.5789853104320001,-0.0732902773248,-0.0112983765504,-9.8206837334912,0.007687994496,0.000144626176,-0.0253798756352,34.0093006249216,-0.0735129022592,-0.0117020009472,-9.8215146092544,0.0079119949439999,4.525146879999996e-05,-0.0252963757952,-0.402862,-0.275039,0.794211,-0.068309,-0.009461,-9.823043,359.98552562299,359.4660964390213,142.77655627315966,0.0014142499968,0.0014138749952,0.0122977499904,-0.3191506242303999,-0.0043754999296,0.0016066252544,-0.9476927502592,0.0014142499968,0.0014138749952,0.0122977499904,3.968573,0.0,0.0,0.00313149988608,0.0,0.0,0.001003562592,0.0,0.0,0.0,3.6254204353671753
2023-09-08 15:20:52.960,0.020492,-0.021192,0.005339,0.086281,0.086289,0.068372,48.359258,-4.557298,48.144339,50.787003,0.589445,0.58857,0.57947,-0.066886,-0.010935,-9.824553,0.008978,-0.000131,-0.025231,34.009319,-0.067124,-0.01148,-9.825205,0.009097,-0.000299,-0.02511,-0.4003479892736,-0.2751683755519999,0.7970351370495999,-0.0790471708159999,-0.0140693946624,-9.8236265024896,359.9927234360018,359.4664617011742,142.75472648802514,0.001415,0.001415,0.0123,-0.319331,-0.004392,0.001547,-0.947632,0.001415,0.001415,0.0123,3.968573,0.0,0.0,0.0031582,0.0,0.0,0.000982,0.0,0.0,0.0,3.603590650232661
2023-09-08 15:20:52.985,0.0209288738816,-0.0208760633088,0.0049596259712,0.0858253761664,0.0858330636672,0.0681476255744,48.359258,-4.557298,48.144110875584,50.7873151867008,0.5892862504064,0.5884109379072,0.5795321873408,-0.0792572183295999,-0.010785000384,-9.8216661323904,0.0101067471104,-0.0004609991552,-0.0252010000768,34.0093427499392,-0.0793695936512,-0.0111368758784,-9.8216931339904,0.0102519970432,-0.0005264994176,-0.0251274999552,-0.396158,-0.275384,0.801742,-0.096944,-0.02175,-9.824599,135.00794563214552,359.4666049402563,142.71984777153628,0.0014168749952,0.0014168749952,0.0122987500032,-0.319618499264,-0.0044313748992,0.0014270003072,-0.947535125248,0.0014168749952,0.0014168749952,0.0122987500032,3.968573,0.0,0.0,0.00320269988608,0.0,0.0,0.0009460625919999,0.0,0.0,0.0,3.568711933743799
2023-09-08 15:20:53.000,0.021191,-0.0206865,0.004732,0.0855519999999999,0.0855595,0.068013,48.359258,-4.557298,48.143974,50.7875025,0.589191,0.5883155,0.5795695000000001,-0.08668,-0.010695,-9.819934,0.010784,-0.000659,-0.025183,34.009357,-0.086717,-0.010931,-9.819586,0.010945,-0.000663,-0.025138,-0.3938228650368,-0.2789903903872,0.8000128676224,-0.0832778166912,-0.0178646084223999,-9.8234301200128,0.0161574098226892,359.46669088429223,142.6989203987794,0.001418,0.001418,0.012298,-0.319791,-0.004455,0.001355,-0.947477,0.001418,0.001418,0.012298,3.968573,0.0,0.0,0.0032294,0.0,0.0,0.0009245,0.0,0.0,0.0,3.547784560986912
2023-09-08 15:20:53.025,0.0216278738816,-0.0203705633088,0.0043526259712,0.0850963761663999,0.0851035636672,0.0677886255744,48.359258,-4.557298,48.143745875584,50.7878146867008,0.5890322504064001,0.5881564379072,0.5796316873408,-0.07674252544,-0.0113737482624,-9.8182858792192,0.0118446222848,-0.0005733752192,-0.0245755015552,34.0095813744256,-0.0752726542976,-0.0110859996032,-9.818314128256,0.0119687473792,-0.000497375424,-0.0244423767808,-0.389931,-0.285001,0.797131,-0.060501,-0.011389,-9.821482,0.0327731433450963,359.4674428894732,142.66515178517673,0.0014111250176,0.0014111250176,0.0122973750016,-0.3200697492864,-0.0044943748992,0.0012168753536,-0.9473826252416,0.0014111250176,0.0014111250176,0.0122973750016,3.968573,0.0,0.0,0.00327389988608,0.0,0.0,0.000888562592,0.0,0.0,0.0,3.514015947384252
2023-09-08 15:20:53.040,0.02189,-0.020181,0.004125,0.084823,0.08483,0.067654,48.359258,-4.557298,48.143609,50.788002,0.588937,0.588061,0.579669,-0.07078,-0.011781,-9.817297,0.012481,-0.000522,-0.024211,34.009716,-0.068406,-0.011179,-9.817551,0.012583,-0.000398,-0.024025,-0.3912693807104,-0.2802452297088,0.7942213625856,-0.06765415552,-0.0079476103168,-9.8227896305792,0.0427426515167594,359.467894095662,142.64489047869856,0.001407,0.001407,0.012297,-0.320237,-0.004518,0.001134,-0.947326,0.001407,0.001407,0.012297,3.968573,0.0,0.0,0.0033006,0.0,0.0,0.0008669999999999,0.0,0.0,0.0,3.493754640906076
2023-09-08 15:20:53.065,0.0216943755008,-0.0201035001984,0.0037725009024,0.0851517491584,0.08515812416,0.0678239995648,48.359258,-4.557298,48.143496500288,50.788002,0.5899207474816001,0.5890416224896,0.5804727479424,-0.0703975009792,-0.010099754304,-9.823053235264,0.012805999168,-0.0008663741183999,-0.023845375936,34.0091772513792,-0.0709722434304,-0.008891505856,-9.8229741111168,0.0127836244864,-0.000857373824,-0.02372812576,-0.3935,-0.272319,0.789372,-0.079576,-0.002212,-9.824969,0.0601820097611824,359.46735694910416,142.6109070064728,0.0014088749952,0.0014088749952,0.0122957500032,-0.3205169992832,-0.004571124864,0.0009927503616,-0.9472310002432,0.0014088749952,0.0014088749952,0.0122957500032,3.968573,0.0,0.0,0.00334509988608,0.0,0.0,0.0008310625919999,0.0,0.0,0.0,3.459771168680305
2023-09-08 15:20:53.080,0.021577,-0.020057,0.003561,0.085349,0.085355,0.067926,48.359258,-4.557298,48.143429,50.788002,0.590511,0.58963,0.580955,-0.070168,-0.009091,-9.826507,0.013001,-0.001073,-0.023626,34.008854,-0.072512,-0.007519,-9.826228,0.012904,-0.001133,-0.02355,-0.3980742695168,-0.2744760092032,0.794310771072,-0.0779833682048,-0.0063842678015999,-9.822780865664,0.0706456961396305,359.4670346589693,142.59051678394064,0.00141,0.00141,0.012295,-0.320685,-0.004603,0.000908,-0.947174,0.00141,0.00141,0.012295,3.968573,0.0,0.0,0.0033718,0.0,0.0,0.0008095,0.0,0.0,0.0,3.4393809461481624
2023-09-08 15:20:53.105,0.0214820002432,-0.0203419992704,0.0033010006655999,0.0856777491584,0.0856843741568,0.0680953745664,48.359258,-4.557298,48.143325875264,50.788002,0.5915066224512,0.5906212474624,0.581764372928,-0.0803185990144,-0.0065135065984,-9.8196920174464,0.0124397514368,-0.0009548753024,-0.023404125568,34.0082458765568,-0.0799657309184,-0.0075389999488,-9.819403017472,0.0123252514816,-0.0009380004991999,-0.0234181253375999,-0.405698,-0.278071,0.802542,-0.075329,-0.013338,-9.819134,0.0867600928747236,359.4669988491988,142.55810894161783,0.0014118749952,0.0014112499968,0.0122937500032,-0.3209524993152,-0.0046479998848,0.0007761253375999,-0.947083375232,0.0014118749952,0.0014112499968,0.0122937500032,3.968573,0.0,0.0,0.00341629988608,0.0,0.0,0.0007735625919999,0.0,0.0,0.0,3.406973103825351
