timestamp,north_vel,east_vel,down_vel,north_vel_dev,east_vel_dev,down_vel_dev,lat,long,alt,undulation,lat_dev,long_dev,alt_dev,accel_x,accel_y,accel_z,gyro_x,gyro_y,gyro_z,temp,delta_vel_x,delta_vel_y,delta_vel_z,delta_angle_x,delta_angle_y,delta_angle_z,mag_x,mag_y,mag_z,accel_x.1,accel_y.1,accel_z.1,roll,pitch,yaw,roll_dev,pitch_dev,yaw_dev,w_quat,x_quat,y_quat,z_quat,roll_dev.1,pitch_dev.1,yaw_dev.1,heave_period,surge_motion,sway_motion,heave_motion,surge_accel,sway_accel,heave_accel,surge_vel,sway_vel,heave_vel,wave_angle
2023-09-08 16:04:54.880,-0.024492,-0.046668,0.003262,0.088054,0.08805,0.069685,48.359259,-4.557283,51.009464,50.787003,0.636481,0.635489,0.629854,-0.071402,-0.019664,-9.812715,-0.007269,0.005132,0.034078,32.924229,-0.071958,-0.018587,-9.812771,-0.00806,0.00522,0.034044,-0.301574,-0.346029,0.803983,-0.070637,-0.008558,-9.812378,0.3031519694037186,359.57240159749387,133.2861978530317,0.001444,0.001443,0.012048,0.396444,0.004475,0.000949,0.918048,0.001444,0.001443,0.012048,2.542546,0.0,0.0,0.008265,0.0,0.0,-0.008815,0.0,0.0,0.0,-5.864937984760786
2023-09-08 16:04:54.905,-0.0250813734911999,-0.0475229978112,0.0031351253248,0.0883896241408,0.0883856241408,0.0698562495616,48.359259,-4.557283,51.0093633752576,50.787003,0.6374878724224,0.6364914974336,0.6306746228992001,-0.071402,-0.019664,-9.812715,-0.007269,0.005132,0.034078,32.924229,-0.071958,-0.018587,-9.812771,-0.00806,0.00522,0.034044,-0.301574,-0.346029,0.803983,-0.070637,-0.008558,-9.812378,0.3031519694037186,359.57240159749387,133.2861978530317,0.001444,0.001443,0.012048,0.396444,0.004475,0.000949,0.918048,0.001444,0.001443,0.012048,2.542546,0.0,0.0,0.00809350043904,0.0,0.0,-0.00845366759168,0.0,0.0,0.0,-5.864937984760786
2023-09-08 16:04:54.920,-0.025435,-0.048036,0.003059,0.088591,0.088587,0.069959,48.359259,-4.557283,51.009303,50.787003,0.638092,0.637093,0.631167,-0.071402,-0.019664,-9.812715,-0.007269,0.005132,0.034078,32.924229,-0.071958,-0.018587,-9.812771,-0.00806,0.00522,0.034044,-0.302582754304,-0.343673989952,0.8086090197376,-0.068559491136,-0.0116656382591999,-9.8100143649152,0.3031519694037186,359.57240159749387,133.2861978530317,0.001444,0.001443,0.012048,0.396444,0.004475,0.000949,0.918048,0.001444,0.001443,0.012048,2.542546,0.0,0.0,0.0079906,0.0,0.0,-0.0082368666666666,0.0,0.0,0.0,-5.864937984760786
2023-09-08 16:04:54.945,-0.0252425004928,-0.0486138110208,0.0035443112576,0.0886606873216,0.0886565831552,0.0699982707327999,48.359259,-4.557283,51.0089966466176,50.7871070622336,0.6387025192704,0.6377009151104001,0.6317281443968,-0.0757251139328,-0.018420253184,-9.8097487575936,-0.012109612608,0.0041188775936,0.0344754989824,32.9239402507392,-0.076142364288,-0.0178532518784,-9.8091516342656,-0.0126918631424,0.0039837531648,0.0345589986816,-0.304264,-0.339749,0.816319,-0.065097,-0.016845,-9.806075,0.2792668524652582,359.57809535100694,133.3341471357612,0.0014458749951999,0.0014448749952,0.0120473750016,0.3960608759808,0.0043462503296,0.0007790004351999,0.918213624576,0.0014458749951999,0.0014448749952,0.0120473750016,2.542546,0.0,0.0,0.00781910043904,0.0,0.0,-0.0078755342583466,0.0,0.0,0.0,-5.816988702031267
2023-09-08 16:04:54.960,-0.025127,-0.0489605,0.0038355,0.0887025,0.0886983333333333,0.0700218333333333,48.359259,-4.557283,51.00881283333334,50.7871695,0.6390688333333333,0.6380656666666666,0.6320648333333334,-0.078319,-0.017674,-9.807969,-0.015014,0.003511,0.034714,32.923767,-0.078653,-0.017413,-9.80698,-0.015471,0.003242,0.034868,-0.3035638720128,-0.33931257313792,0.81595892346368,-0.0666037564288,-0.0167488495897599,-9.8046376188672,0.2649356844684926,359.58151162643645,133.3629169017997,0.001447,0.001446,0.012047,0.395831,0.004269,0.000677,0.918313,0.001447,0.001446,0.012047,2.542546,0.0,0.0,0.0077161999999999,0.0,0.0,-0.0076587333333333,0.0,0.0,0.0,-5.788218935992774
2023-09-08 16:04:55.145,-0.0237025004928,-0.0532363110207999,0.0074268112576,0.0892181873216,0.0892132498218666,0.0703124373994666,48.359259,-4.557283,51.00654581328427,50.7879395622336,0.6435866859370667,0.6425642484437333,0.6362173110634666,-0.0844128978918399,-0.01497855093248,-9.78926180647168,-0.02309017220608,-0.0030379977343999,0.03606727453184,32.92543569942272,-0.08354069830912,-0.01415052612864,-9.79021068080128,-0.02296997240576,-0.0032477977548799,0.03621017453568,-0.294929,-0.33393,0.811518,-0.085187,-0.015563,-9.78691,332.99473973243306,359.5815646250141,133.7278651079449,0.001447,0.001446,0.01204977499904,0.39291355100928,0.00334030032128,-0.0014763992550399,0.91956729956608,0.001447,0.001446,0.01204977499904,2.542546,0.0,0.0,0.0064471004390399,0.0,0.0,-0.00498486759168,0.0,0.0,0.0,-5.423270729847587
2023-09-08 16:04:55.160,-0.023587,-0.053583,0.007718,0.08926,0.089255,0.070336,48.359259,-4.557283,51.006362,50.788002,0.643953,0.642929,0.636554,-0.084907,-0.01476,-9.787745,-0.023745,-0.003569,0.036177,32.925571,-0.083937,-0.013886,-9.788851,-0.023578,-0.003774,0.036319,-0.2959760044672,-0.338565019776,0.8146140132096,-0.0852365002112,-0.0169366308608,-9.7846678654336,359.9729563920698,359.581568922216,133.7574556395268,0.001447,0.001446,0.01205,0.392677,0.003265,-0.001651,0.919669,0.001447,0.001446,0.01205,2.542546,0.0,0.0,0.0063441999999999,0.0,0.0,-0.0047680666666666,0.0,0.0,0.0,-5.393680198265685
2023-09-08 16:04:55.180,-0.0228185,-0.053271,0.008497,0.088288,0.0882835,0.0698584999999999,48.359259,-4.557283,51.005937,50.788002,0.6428785,0.6418585,0.6359765,-0.084102,-0.014962,-9.7866985,-0.021206,-0.004019,0.0361805,32.925312,-0.08407,-0.01418,-9.786934,-0.0209235,-0.0040845,0.036216,-0.2973720044672,-0.344745019776,0.8187420132096,-0.0853025002112,-0.0187681308608,-9.7816783654336,359.9504964465007,359.5775009218705,133.7971329668396,0.001441,0.0014399999999999,0.0120495,0.392359,0.0032215,-0.001844,0.9198045,0.001441,0.0014399999999999,0.0120495,2.542546,0.0,0.0,0.006207,0.0,0.0,-0.004479,0.0,0.0,0.0,-5.354002870952883
2023-09-08 16:04:55.185,-0.0226263774592,-0.0531930009984,0.0086917475072,0.0880450031104,0.0880406281088,0.069739126528,48.359259,-4.557283,51.00583075136,50.788002,0.6426098784384,0.6415908784256,0.6358321268480001,-0.0839007525759999,-0.0150124993536,-9.7864368783488,-0.0205712581248,-0.00413149856,0.0361813749888,32.9252472508288,-0.0841032495744,-0.0142534990592,-9.7864547561344,-0.0202598834944,-0.0041621240064,0.0361902503296,-0.297721,-0.34629,0.819774,-0.085319,-0.019226,-9.780931,359.9448815319803,359.5764839348018,133.80705217170035,0.0014395000192,0.0014385000192,0.0120493750016,0.3922795010176,0.0032106251392,-0.0018922493824,0.9198383745664,0.0014395000192,0.0014385000192,0.0120493750016,2.542546,0.0,0.0,0.0062109832823466,0.0,0.0,-0.00433545183744,0.0,0.0,0.0,-5.344083666092132
2023-09-08 16:04:55.200,-0.02205,-0.052959,0.009276,0.087316,0.087312,0.069381,48.359259,-4.557283,51.005512,50.788002,0.641804,0.640788,0.635399,-0.083297,-0.015164,-9.785652,-0.018667,-0.004469,0.036184,32.925053,-0.084203,-0.014474,-9.785017,-0.018269,-0.004395,0.036113,-0.2989236301312,-0.3427353598336,0.8198872504832,-0.0837454932864,-0.0114743419264,-9.7846787659904,359.9280365009316,359.5734329215251,133.8368102941524,0.001435,0.001434,0.012049,0.392041,0.003178,-0.002037,0.91994,0.001435,0.001434,0.012049,2.542546,0.0,0.0,0.0062229333333333,0.0,0.0,-0.0039048,0.0,0.0,0.0,-5.314325543640081
2023-09-08 16:04:55.225,-0.02133125184,-0.0529446250367999,0.0099159983616,0.0876497491456,0.0876451241472,0.0695522495616,48.359259,-4.557283,51.0052345007104,50.788002,0.6427996224512,0.6417798724608,0.6362171229056001,-0.0828813760639999,-0.0089496409088,-9.7878838692864,-0.0150901341568,-0.0052358730368,0.0362046249472,32.924912375359995,-0.0827773786496,-0.0090996387584,-9.7884882411136,-0.0146271343232,-0.0052681227648,0.0361873748096,-0.300928,-0.336811,0.820076,-0.081123,0.001445,-9.790925,359.90848436622633,359.5665216358143,133.88569063091552,0.0014368749952,0.0014358749951999,0.0120483750016,0.3916491260031999,0.0031680000256,-0.0022163745408,0.9201062495744,0.0014368749952,0.0014358749951999,0.0120483750016,2.542546,0.0,0.0,0.0062428499490133,0.0,0.0,-0.00318705183744,0.0,0.0,0.0,-5.2654452068769615
2023-09-08 16:04:55.240,-0.0209,-0.052936,0.0103,0.08785,0.087845,0.069655,48.359259,-4.557283,51.005068,50.788002,0.643397,0.642375,0.636708,-0.082632,-0.005221,-9.789223,-0.012944,-0.005696,0.036217,32.924828,-0.081922,-0.005875,-9.790571,-0.012442,-0.005792,0.036232,-0.3010562505472,-0.335624119936,0.8170696121728,-0.0790859913088,-0.009203170432,-9.789529994048,359.8967530053174,359.5623748360791,133.91501903318775,0.001438,0.001437,0.012048,0.391414,0.003162,-0.002324,0.920206,0.001438,0.001437,0.012048,2.542546,0.0,0.0,0.0062548,0.0,0.0,-0.0027564,0.0,0.0,0.0,-5.236116804604734
2023-09-08 16:04:55.265,-0.0203450014207999,-0.052773500416,0.0109154150912,0.0878798957568,0.0878751040896,0.0696651041407999,48.3592588958336,-4.557283,51.0047043550976,50.7878979377664,0.6425109606016,0.6414933355904,0.6359901893376,-0.0836357474303999,-0.0121128573568,-9.7885505017216,-0.0086983858688,-0.0060084992,0.0362120000128,32.925690497792004,-0.0829888722688,-0.0129974817664,-9.7882760058752,-0.0081445110016,-0.0060519993344,0.0362457499648,-0.30127,-0.333646,0.812059,-0.075691,-0.02695,-9.787205,359.8870127477353,359.5548905940399,133.96479461421393,0.0014398749952,0.0014388749952,0.0120473750016,0.391014001024,0.003190124928,-0.0024264997376,0.9203759995648,0.0014398749952,0.0014388749952,0.0120473750016,2.542546,0.0,0.0,0.00627471661568,0.0,0.0,-0.00203865183744,0.0,0.0,0.0,-5.186341223578552
2023-09-08 16:04:55.280,-0.020012,-0.052676,0.0112846666666666,0.0878978333333333,0.0878931666666666,0.0696711666666666,48.359258833333335,-4.557283,51.004486166666666,50.7878355,0.6419793333333333,0.6409643333333334,0.6355595,-0.084238,-0.016248,-9.788147,-0.006151,-0.006196,0.036209,32.926208,-0.083629,-0.017271,-9.786899,-0.005566,-0.006208,0.036254,-0.3016520641301333,-0.3347966299093333,0.8123395636970666,-0.0763087526357333,-0.0258538078229333,-9.787796815025066,359.88116855328985,359.5504000181608,133.99466016671096,0.001441,0.00144,0.012047,0.390774,0.003207,-0.002488,0.920478,0.001441,0.00144,0.012047,2.542546,0.0,0.0,0.0062866666666666,0.0,0.0,-0.001608,0.0,0.0,0.0,-5.156475671081523
2023-09-08 16:04:55.480,-0.015572,-0.051376,0.016208,0.088137,0.088134,0.069752,48.359258,-4.557283,51.001577,50.787003,0.634891,0.633911,0.629817,-0.0824971666666666,-0.0118613333333333,-9.798980333333333,0.0240998333333333,-0.0079926666666666,0.0363165,32.925703,-0.0821781666666666,-0.0121868333333333,-9.799939,0.0243115,-0.0079055,0.0363198333333333,-0.3067462307968,-0.350138296576,0.8160803970304,-0.0845454193024,-0.0112379744896,-9.7956876483584,0.0622805123307204,359.4649720109068,134.40254882106458,0.001441,0.00144,0.012051,0.387488,0.004515,-0.001308,0.921863,0.001441,0.00144,0.012051,2.542546,0.0,0.0,0.006446,0.0,0.0,0.004134,0.0,0.0,0.0,-4.748587016727896
2023-09-08 16:04:55.505,-0.0156201248768,-0.0514341248512,0.016336124672,0.088471374144,0.088468374144,0.0699219995648,48.359258,-4.557283,51.00117075104,50.787003,0.6358928724352,0.6349091224448,0.630635747904,-0.0822795630570666,-0.0113130014037333,-9.800334496533331,0.0278811778197333,-0.0082172494250666,0.0363299374656,32.9256398751616,-0.0819968129642666,-0.0115513141269333,-9.8015689958272,0.0280461779392,-0.0081176869568,0.0363280624789333,-0.307383,-0.352056,0.816548,-0.085575,-0.009411,-9.796674,0.1038198461367383,359.4543723188322,134.45447298832212,0.0014422499968,0.0014412499967999,0.0120547499904,0.3870686260736,0.0047412494208,-0.0010073757696,0.922037999552,0.0014422499968,0.0014412499967999,0.0120547499904,2.542546,0.0,0.0,0.00652499979776,0.0,0.0,0.00415062495744,0.0,0.0,0.0,-4.696662849470357
2023-09-08 16:04:55.520,-0.015649,-0.051469,0.016413,0.088672,0.088669,0.070024,48.359258,-4.557283,51.000927,50.787003,0.636494,0.635508,0.631127,-0.082149,-0.010984,-9.801147,0.03015,-0.008352,0.036338,32.925602,-0.081888,-0.01117,-9.802547,0.030287,-0.008245,0.036333,-0.3073995000704,-0.3473887300864,0.8165645000704,-0.0797125999872,-0.0074673667071999,-9.8017582716928,0.1287436165658959,359.44801246017096,134.48562770135857,0.001443,0.001442,0.012057,0.386817,0.004877,-0.000827,0.922143,0.001443,0.001442,0.012057,2.542546,0.0,0.0,0.0065724,0.0,0.0,0.0041605999999999,0.0,0.0,0.0,-4.665508136433914
2023-09-08 16:04:55.545,-0.0162007173376,-0.0516766557184,0.0163237814784,0.0885624690303999,0.0885594690304,0.069974781376,48.359258,-4.5572831562496,51.0005321572608,50.787003,0.63683384288,0.6358461241344,0.631508249024,-0.0807808785024,-0.0106421258752,-9.802618871232,0.0300550002432,-0.0076488768,0.0359042511104,32.9254470003968,-0.0801986293248,-0.0119349980416,-9.8033651229056,0.0301326253952,-0.0076562515072,0.0358923761279999,-0.307427,-0.33961,0.816592,-0.069942,-0.004228,-9.810232,0.1699248526666895,359.4387019198352,134.53465127720378,0.0014448749952,0.0014438749952,0.012057,0.386420126016,0.0050907494528,-0.0005251257728,0.922308624576,0.0014448749952,0.0014438749952,0.012057,2.542546,0.0,0.0,0.00665139979776,0.0,0.0,0.00417722495744,0.0,0.0,0.0,-4.616484560588702
2023-09-08 16:04:55.560,-0.0165317499999999,-0.05180125,0.01627025,0.08849675,0.08849375,0.06994525,48.359258,-4.55728325,51.00029524999999,50.787003,0.63703775,0.636049,0.631737,-0.07996,-0.010437,-9.803502,0.029998,-0.007227,0.035644,32.925354,-0.079185,-0.012394,-9.803856,0.03004,-0.007303,0.035628,-0.3075377504725333,-0.3384247449429333,0.8140864893098667,-0.0709315042218666,-0.0064665095509333,-9.8087743687808,0.1946337630059406,359.4331155574976,134.56406562351196,0.001446,0.001445,0.012057,0.386182,0.005219,-0.000344,0.922408,0.001446,0.001445,0.012057,2.542546,0.0,0.0,0.0066988,0.0,0.0,0.0041871999999999,0.0,0.0,0.0,-4.587070214280516
2023-09-08 16:04:55.665,-0.0188489673375999,-0.0526734057184,0.0158955314783999,0.0880367190303999,0.0880337190304,0.0697385313759999,48.359258,-4.5572839062496,50.9986369072608,50.787003,0.6384650928800001,0.6374691241344,0.633338249024,-0.0774603452736,-0.0143725288512,-9.8008271266304,0.0149528216704,-0.0003803479232,0.0343538132864,32.9260522495744,-0.0771519387392,-0.0145084362112,-9.8007309394048,0.0146634156224,-0.0002647230399999,0.0342741570752,-0.308313,-0.330128,0.796548,-0.077858,-0.022136,-9.798571,0.3079360979325479,359.4202813107094,134.76560340510707,0.0014398750037333,0.0014388750037333,0.0120552500010666,0.3845536259925333,0.0057028747050666,0.000535374464,0.9230843745877334,0.0014398750037333,0.0014388750037333,0.0120552500010666,2.542546,0.0,0.0,0.00703059979776,0.0,0.0,0.0042570249574399,0.0,0.0,0.0,-4.385532432685409
2023-09-08 16:04:55.680,-0.01918,-0.052798,0.015842,0.087971,0.087968,0.069709,48.359258,-4.557284,50.9984,50.787003,0.638669,0.637672,0.633567,-0.07710325,-0.01493475,-9.800445,0.0128034999999999,0.00059775,0.0341695,32.926152,-0.0768615,-0.0148105,-9.8002845,0.01246675,0.00074075,0.03408075,-0.3091845037184,-0.3289643700352,0.804183032576,-0.0749731126912,-0.0167176018816,-9.8008326346496,0.3241222247055066,359.4184478379422,134.79439465715456,0.001439,0.001438,0.012055,0.384321,0.005772,0.000661,0.923181,0.001439,0.001438,0.012055,2.542546,0.0,0.0,0.007078,0.0,0.0,0.004267,0.0,0.0,0.0,-4.3567411806379255
2023-09-08 16:04:55.705,-0.020048747776,-0.053241748864,0.015463875968,0.088305374144,0.088302374144,0.0698789995648,48.359258,-4.557284,50.9981025007616,50.787003,0.6396708724351999,0.6386701224448,0.6343876228992,-0.0765080952736,-0.0158717788512,-9.7998081266304,0.0092213216704,0.0022279020768,0.0338623132864,32.9263182495744,-0.0763774387392,-0.0153139362112,-9.7995404394048,0.0088056656224,0.00241652696,0.0337584070751999,-0.310637,-0.327025,0.816908,-0.070165,-0.007687,-9.804602,0.3317497058267841,359.4243922598489,134.8423797496546,0.0014402499968,0.0014392499968,0.0120587499904,0.3839341259904,0.0057495000576,0.0007447497856,0.9233422495872,0.0014402499968,0.0014392499968,0.0120587499904,2.542546,0.0,0.0,0.00705350006272,0.0,0.0,0.0036897514777599,0.0,0.0,0.0,-4.308756088137869
2023-09-08 16:04:55.720,-0.02057,-0.053508,0.015237,0.088506,0.088503,0.069981,48.359258,-4.557284,50.997924,50.787003,0.640272,0.639269,0.63488,-0.076151,-0.016434,-9.799426,0.007072,0.003206,0.033678,32.926418,-0.076087,-0.015616,-9.799094,0.006609,0.003422,0.033565,-0.3105616246784,-0.3305357649792,0.8184008813696,-0.0703153756416,-0.0102966361344,-9.8009686094976,0.3363262257417932,359.4279589373414,134.8711710017021,0.001441,0.00144,0.012061,0.383702,0.005736,0.000795,0.923439,0.001441,0.00144,0.012061,2.542546,0.0,0.0,0.0070388,0.0,0.0,0.0033434,0.0,0.0,0.0,-4.279964836090386
2023-09-08 16:04:55.745,-0.0214831226624,-0.0539398738944,0.01454950176,0.0888409991424,0.088837374144,0.0701509995648,48.359258,-4.557284,50.9976602506752,50.787003,0.6412851224064,0.640278372416,0.6357068728831999,-0.0741941300096,-0.0173071227648,-9.8014516198144,0.0025545115648,0.0053766194432,0.0336773750016,32.9264279999744,-0.0737845058944,-0.0159484991487999,-9.801584618624,0.0019458869376,0.005540744576,0.0338187493504,-0.310436,-0.336387,0.820889,-0.070566,-0.014646,-9.794913,0.3332823952473867,359.4387018684981,134.9177953229223,0.0014428749952,0.0014418749952,0.012061,0.3833263759616,0.005639125248,0.0008087499648,0.9235952496,0.0014428749952,0.0014418749952,0.012061,2.542546,0.0,0.0,0.00701430006272,0.0,0.0,0.00276615147776,0.0,0.0,0.0,-4.233340514870179
2023-09-08 16:04:55.760,-0.022031,-0.054199,0.014137,0.089042,0.089038,0.070253,48.359258,-4.557284,50.997502,50.787003,0.641893,0.640884,0.636203,-0.07302,-0.017831,-9.802667,-0.000156,0.006679,0.033677,32.926434,-0.072403,-0.016148,-9.803079,-0.000852,0.006812,0.033971,-0.3081327401728,-0.3329831104768,0.8191932427648,-0.0734096371328,-0.0167542589952,-9.7987751414784,0.3314560844831812,359.4451476711953,134.94577010662812,0.001444,0.001443,0.012061,0.383101,0.005581,0.000817,0.923689,0.001444,0.001443,0.012061,2.542546,0.0,0.0,0.0069996,0.0,0.0,0.0024198,0.0,0.0,0.0,-4.205365731164363
2023-09-08 16:04:55.780,-0.0224079999999999,-0.054133,0.0134265,0.087971,0.0879675,0.069724,48.359258,-4.557284,50.996908,50.7875025,0.6406935,0.6396885,0.6355275,-0.0758129999999999,-0.0148055,-9.801701,-0.003495,0.008508,0.0335245,32.926777,-0.076285,-0.0146475,-9.80168,-0.004077,0.008793,0.0336599999999999,-0.3050617401728,-0.3284446104768,0.8169322427647999,-0.0772011371328,-0.0195652589952,-9.8039246414784,0.3214006751786352,359.4581538131448,134.981322137816,0.001438,0.001437,0.0120605,0.3828155,0.005442,0.000781,0.923808,0.001438,0.001437,0.0120605,2.542546,0.0,0.0,0.00698,0.0,0.0,0.001958,0.0,0.0,0.0,-4.169813699976487
2023-09-08 16:04:55.785,-0.0225022487936,-0.0541165002112,0.0132488772736,0.0877032534272,0.0876998784256,0.0695917516928,48.359258,-4.557284,50.9967595019008,50.7876273734016,0.6403936288384,0.6393896288256,0.6353586271616,-0.0765112410624,-0.0140491346816,-9.8014595030912,-0.0043297393152,0.0089652441472,0.033486375488,32.9268627489024,-0.0772554875776,-0.0142723798016,-9.8013302544768,-0.00488323968,0.0092882436608,0.0335822509952,-0.304294,-0.32731,0.816367,-0.078149,-0.020268,-9.805212,0.3188868550298085,359.4614053070125,134.99021003184646,0.0014365000192,0.0014355000192,0.0120603750016,0.3827441259136,0.0054072504448,0.0007720001152,0.9238377496192,0.0014365000192,0.0014355000192,0.0120603750016,2.542546,0.0,0.0,0.0069645168648533,0.0,0.0,0.00186210122752,0.0,0.0,0.0,-4.160925805946022
2023-09-08 16:04:55.800,-0.022785,-0.054067,0.012716,0.0869,0.086897,0.069195,48.359258,-4.557284,50.996314,50.788002,0.639494,0.638493,0.634852,-0.078606,-0.01178,-9.800735,-0.006834,0.010337,0.033372,32.92712,-0.080167,-0.013147,-9.800281,-0.007302,0.010774,0.033349,-0.3090430202624,-0.3294295090432,0.816764501696,-0.0764903679231999,-0.016079232128,-9.8033441170304,0.3113452658740893,359.47115995509427,135.01687416900384,0.001432,0.001431,0.01206,0.38253,0.005303,0.000745,0.923927,0.001432,0.001431,0.01206,2.542546,0.0,0.0,0.0069180666666666,0.0,0.0,0.0015744,0.0,0.0,0.0,-4.134261668788639
2023-09-08 16:04:55.825,-0.023388123456,-0.054541998784,0.0119491269632,0.0872331241472,0.0872301241472,0.0693662495616,48.359258,-4.557284,50.996107750528,50.788002,0.6404758724864,0.6394704974976,0.6356632479232,-0.0769878791424,-0.013395620864,-9.80021937632,-0.0107833648896,0.0119357459072,0.0331426255872,32.9271937498112,-0.0762182601088,-0.0134044993408,-9.8005097494144,-0.0112194899712,0.0122658711808,0.0330540007552,-0.316958,-0.332962,0.817427,-0.073726,-0.009098,-9.800231,0.2901458817248112,359.4910701875047,135.06170800169792,0.0014338749952,0.0014328749951999,0.01206,0.38217062592,0.005071750592,0.0006425002624,0.9240776246144,0.0014338749952,0.0014328749951999,0.01206,2.542546,0.0,0.0,0.0068406501981866,0.0,0.0,0.00109490122752,0.0,0.0,0.0,-4.089427836094558
2023-09-08 16:04:55.840,-0.02375,-0.054827,0.011489,0.087433,0.08743,0.069469,48.359258,-4.557284,50.995984,50.788002,0.641065,0.640057,0.63615,-0.076017,-0.014365,-9.79991,-0.013153,0.012895,0.033005,32.927238,-0.073849,-0.013559,-9.800647,-0.01357,0.013161,0.032877,-0.315840495232,-0.3306711152256,0.8158279931776,-0.0724656196224,-0.012606139968,-9.8054015220608,0.2774261644023446,359.5030164085035,135.08860848495422,0.001435,0.001434,0.01206,0.381955,0.004933,0.000581,0.924168,0.001435,0.001434,0.01206,2.542546,0.0,0.0,0.0067942,0.0,0.0,0.0008071999999999,0.0,0.0,0.0,-4.062527352838259
2023-09-08 16:04:55.865,-0.023454167424,-0.0552012698752,0.0109545222015999,0.0875156039552,0.0875124997887999,0.0695147290496,48.359258,-4.557284,50.9959728541952,50.7878979377664,0.641686352576,0.6406758525824,0.6367193735423999,-0.0722113847424,-0.0146999991424,-9.803000617088,-0.0160717425279999,0.014404371136,0.0333093742208,32.926935500774405,-0.0722515040896,-0.0136083748736,-9.8024651203456,-0.0164124927232,0.0145503714432,0.0332951239296,-0.313978,-0.326853,0.813163,-0.070365,-0.018453,-9.814019,0.2497094020179843,359.5261137104905,135.1348388986987,0.0014368749952,0.0014358749951999,0.0120593750016,0.3815837509504,0.0046542507136,0.0004360003712,0.9243223746048,0.0014368749952,0.0014358749951999,0.0120593750016,2.542546,0.0,0.0,0.00671678353152,0.0,0.0,0.0003277012275199,0.0,0.0,0.0,-4.016296939093792
2023-09-08 16:04:55.880,-0.0232766666666666,-0.0554258333333333,0.0106338333333333,0.0875651666666666,0.087562,0.0695421666666666,48.359258,-4.557284,50.99596616666667,50.7878355,0.6420591666666666,0.6410471666666666,0.637061,-0.069928,-0.014901,-9.804855,-0.017823,0.01531,0.033492,32.926754,-0.071293,-0.013638,-9.803556,-0.018118,0.015384,0.033546,-0.3137251739212799,-0.3275658780416,0.81344132618752,-0.07151355490048,-0.01852665031424,-9.814214000832,0.2330792310592188,359.53997218628945,135.16257733630562,0.001438,0.001437,0.012059,0.381361,0.004487,0.000349,0.924415,0.001438,0.001437,0.012059,2.542546,0.0,0.0,0.0066703333333333,0.0,0.0,3.999999999999989e-05,0.0,0.0,0.0,-3.988558501486864
2023-09-08 16:04:56.065,-0.0210875007573333,-0.0581954365418666,0.0066786888682666,0.0881764372885333,0.0881724997888,0.0698805623829333,48.359258,-4.557284,50.99588368752853,50.7870654377664,0.6466571859093333,0.6456266859157332,0.6412743735423999,-0.07698389755904,-0.01552907478272,-9.81592817116928,-0.01985522429696,0.00619135315456,0.0337417499136,32.926108350223366,-0.07854407249152,-0.01654804899328,-9.81516567098368,-0.01981259941376,0.0058907282841599,0.033638499968,-0.310607,-0.336358,0.816874,-0.085679,-0.019435,-9.816619,332.9936754526762,359.66759276142704,135.5056901284322,0.001438,0.001437,0.0120617749990399,0.37860080095488,0.0026647506304,-0.0011485744819199,0.92555459960576,0.001438,0.001437,0.0120617749990399,2.542546,0.0,0.0,0.0060974501981866,0.0,0.0,-0.00350829877248,0.0,0.0,0.0,-3.645445709360274
2023-09-08 16:04:56.080,-0.02091,-0.05842,0.006358,0.088226,0.088222,0.069908,48.359258,-4.557284,50.995877,50.787003,0.64703,0.645998,0.641616,-0.077556,-0.01558,-9.816826,-0.02002,0.005452,0.033762,32.926056,-0.079132,-0.016784,-9.816107,-0.01995,0.005121,0.033646,-0.3117972550784,-0.3363039997696,0.816975250432,-0.0851569977728,-0.0166539881344,-9.8197888885248,359.97438878655765,359.677940423357,135.5335102128733,0.001438,0.001437,0.012062,0.378377,0.002517,-0.00127,0.925647,0.001438,0.001437,0.012062,2.542546,0.0,0.0,0.006051,0.0,0.0,-0.003796,0.0,0.0,0.0,-3.617625624919185
2023-09-08 16:04:56.105,-0.0198812526336,-0.0585462496768,0.006629874304,0.088560374144,0.0885557491456,0.0700779995648,48.359258,-4.557284,50.995600125708805,50.787003,0.6480418724096,0.6470054974208,0.6424453728768,-0.0773447505407999,-0.0178374942208,-9.8177066227456,-0.0187093783552,0.002652007168,0.0335670004992,32.925843500544005,-0.077403879424,-0.0177333725696,-9.8181763697024,-0.0185962534656,0.0023235071615999,0.0335285003008,-0.313781,-0.336214,0.817144,-0.084287,-0.012019,-9.825072,359.94728079027215,359.6801964388999,135.5812804467502,0.0014398749952,0.0014388749952,0.0120663749888,0.3779913759872,0.0024101252736,-0.0014806244608,0.9258044995968,0.0014398749952,0.0014388749952,0.0120663749888,2.542546,0.0,0.0,0.00617356218624,0.0,0.0,-0.00307137685504,0.0,0.0,0.0,-3.5698553910422675
2023-09-08 16:04:56.120,-0.019264,-0.058622,0.006793,0.088761,0.088756,0.07018,48.359258,-4.557284,50.995434,50.787003,0.648649,0.64761,0.642943,-0.077218,-0.019192,-9.818235,-0.017923,0.000972,0.03345,32.925716,-0.076367,-0.018303,-9.819418,-0.017784,0.000645,0.033458,-0.3150256303104,-0.3384831346816,0.8157313689728,-0.076089465024,-0.012073375232,-9.8175295928192,359.93101588146624,359.68155005746627,135.60994278274376,0.001441,0.00144,0.012069,0.37776,0.002346,-0.001607,0.925899,0.001441,0.00144,0.012069,2.542546,0.0,0.0,0.0062471,0.0,0.0,-0.0026366,0.0,0.0,0.0,-3.5411930550487227
2023-09-08 16:04:56.145,-0.0180333781504,-0.0586247083264,0.007696122688,0.0886226670208,0.0886176670208,0.0701156251648,48.359258,-4.557284,50.9950810842368,50.7872111244672,0.6489371242624,0.6478966659328,0.64329195744,-0.0784817467648,-0.0157207588864,-9.8138931361152,-0.0157973804416,-0.0020742422016,0.0336293745408,32.9258734995968,-0.0779082460544,-0.0151211331456,-9.8141505134848,-0.0153677561856,-0.0024468670847999,0.0335217498368,-0.3171,-0.342265,0.813377,-0.062427,-0.012164,-9.804959,359.9094583996117,359.67675154821626,135.65585090855353,0.0014428749952,0.0014418749952,0.0120683750016,0.3773900009472,0.0023141250816,-0.0017963745152,0.9260496246144,0.0014428749952,0.0014418749952,0.0120683750016,2.542546,0.0,0.0,0.00636966218624,0.0,0.0,-0.0019119768550399,0.0,0.0,0.0,-3.4952849292389487
2023-09-08 16:04:56.160,-0.017295,-0.0586263333333333,0.008238,0.0885396666666666,0.0885346666666666,0.070077,48.359258,-4.557284,50.99486933333333,50.787336,0.6491100000000001,0.6480686666666666,0.6435013333333334,-0.07924,-0.013638,-9.811288,-0.014522,-0.003902,0.033737,32.925968,-0.078833,-0.013212,-9.81099,-0.013918,-0.004302,0.03356,-0.3165391851071999,-0.3417028726016,0.8125756215808,-0.0633046912448,-0.0104907428608,-9.8031783049024,359.89652382219936,359.6738724230115,135.68339597207955,0.001444,0.001443,0.012068,0.377168,0.002295,-0.00191,0.92614,0.001444,0.001443,0.012068,2.542546,0.0,0.0,0.0064432,0.0,0.0,-0.0014771999999999,0.0,0.0,0.0,-3.467739865712929
2023-09-08 16:04:56.225,-0.0140953781504,-0.0586333749930666,0.010586122688,0.0881800003541333,0.0881750003541333,0.0699096251648,48.359258,-4.557284,50.99395175090347,50.7878771244672,0.6498591242624,0.6488139992661333,0.6444086241066667,-0.0765067526912,-0.010030503552,-9.8074928162368,-0.0066862577152,-0.0101753063232,0.0335736876608,32.9260118749568,-0.0767830645184,-0.009856378304,-9.807715628224,-0.0060586952383999,-0.0104063064896,0.03353968752,-0.314109,-0.339267,0.809103,-0.067108,-0.00324,-9.795462,359.86640417676284,359.64063374164886,135.8009882817744,0.0014383125056,0.0014373125056,0.0120663750016,0.376217375936,0.0024672498304,-0.0022601871552,0.9265251246208,0.0014383125056,0.0014373125056,0.0120663750016,2.542546,0.0,0.0,0.0067618621862399,0.0,0.0,0.00040682314496,0.0,0.0,0.0,-3.350147556018072
2023-09-08 16:04:56.240,-0.013357,-0.058635,0.011128,0.088097,0.088092,0.069871,48.359258,-4.557284,50.99374,50.788002,0.650032,0.648986,0.644618,-0.075876,-0.009198,-9.806617,-0.004878,-0.011623,0.033536,32.926022,-0.07631,-0.009082,-9.80696,-0.004245,-0.011815,0.033535,-0.31649026016,-0.3379942445696,0.8093103758848,-0.0694675100672,-0.003363750528,-9.7942631198848,359.8594534528544,359.6329632364392,135.8281251111296,0.001437,0.001436,0.012066,0.375998,0.002507,-0.002341,0.926614,0.001437,0.001436,0.012066,2.542546,0.0,0.0,0.0068354,0.0,0.0,0.0008416,0.0,0.0,0.0,-3.3230107266628863
2023-09-08 16:04:56.265,-0.0125229396352,-0.058342032,0.0121039350016,0.0884310616448,0.0884260616448,0.0700403745664,48.359258,-4.557284,50.9933031261184,50.788002,0.6510599661184,0.6500097473791999,0.6454567478528,-0.0781197442559999,-0.009051125376,-9.8004182658688,-0.0010773847296,-0.0134923702144,0.0330741261824,32.926686998297605,-0.077322497408,-0.0084926265088,-9.799556893952,-0.0005187595391999,-0.0137312450944,0.0331281260416,-0.320459,-0.335873,0.809656,-0.0734,-0.00357,-9.792265,359.8602770775764,359.6130530040288,135.87227855818375,0.0014382499968,0.0014372499968,0.012066,0.3756411259136,0.0026713745792,-0.0023984998528,0.9267583746304,0.0014382499968,0.0014372499968,0.012066,2.542546,0.0,0.0,0.00695796218624,0.0,0.0,0.00156622314496,0.0,0.0,0.0,-3.2788572796087294
2023-09-08 16:04:56.280,-0.0120225,-0.05816625,0.0126895,0.0886315,0.0886265,0.070142,48.359258,-4.557284,50.993041000000005,50.788002,0.65167675,0.650624,0.64596,-0.079466,-0.008963,-9.796699,0.001203,-0.014614,0.032797,32.927086,-0.07793,-0.008139,-9.795115,0.001717,-0.014881,0.032884,-0.3188799932629333,-0.3339996170069333,0.8095276244522667,-0.0748586312234666,-0.0045617542314666,-9.794564259810134,359.8607712557832,359.60110678302993,135.89877080726922,0.001439,0.001438,0.012066,0.375427,0.00277,-0.002433,0.926845,0.001439,0.001438,0.012066,2.542546,0.0,0.0,0.0070314999999999,0.0,0.0,0.002001,0.0,0.0,0.0,-3.252365030523265
2023-09-08 16:04:56.385,-0.0085194396352,-0.056935782,0.0167884350016,0.0900345616447999,0.0900295616448,0.0708533745664,48.359258,-4.557284,50.9912061261184,50.788002,0.6559942161183999,0.6549237473792,0.6494827478527999,-0.0823788732245333,-0.0084082503381333,-9.804746370094934,0.0188534892416,-0.0164278738944,0.0315623757525333,32.9265951252992,-0.0826724971093333,-0.0070592506581333,-9.803616494818131,0.0191557393706666,-0.0165119990058666,0.0315435008170666,-0.307827,-0.320886,0.808629,-0.085069,-0.011504,-9.810659,359.9436423883645,359.5072563533916,136.0844161817087,0.0014468749952,0.0014458749951999,0.0120703749973333,0.3739220009173333,0.0038042493696,-0.0020637502250666,0.9274496246314669,0.0014468749952,0.0014458749951999,0.0120703749973333,2.542546,0.0,0.0,0.00754626218624,0.0,0.0,0.00504442314496,0.0,0.0,0.0,-3.066719656083791
2023-09-08 16:04:56.400,-0.008019,-0.05676,0.017374,0.090235,0.09023,0.070955,48.359258,-4.557284,50.990944,50.788002,0.656611,0.655538,0.649986,-0.082795,-0.008329,-9.805896,0.021375,-0.016687,0.031386,32.926525,-0.08335,-0.006905,-9.804831,0.021647,-0.016745,0.031352,-0.3137572753024,-0.3252858937728,0.8091195020928,-0.0822032377728,-0.0095659917312,-9.8078978632192,359.9554811793183,359.4938490837814,136.11093707880616,0.001448,0.001447,0.012071,0.373707,0.003952,-0.002011,0.927536,0.001448,0.001447,0.012071,2.542546,0.0,0.0,0.0076197999999999,0.0,0.0,0.0054792,0.0,0.0,0.0,-3.040198758986321
2023-09-08 16:04:56.425,-0.0103133691264,-0.0561450015744,0.0184283723008,0.0883350048639999,0.0883325048576,0.0698843777408,48.359258,-4.557284,50.972994045952,50.7873776265984,0.6397460431744,0.6387511679744,0.6345385395456,-0.0811862541184,-0.009944620864,-9.8054235012096,0.0251324903808,-0.0160376266624,0.0309597510912,32.9267443744384,-0.0817668790528,-0.0094624934528,-9.8059247472,0.0255738649472,-0.0160993766528,0.0307601265152,-0.323641,-0.332619,0.809937,-0.077427,-0.006336,-9.803296,134.9948749705646,359.47196931399225,136.15218993444802,0.001438625024,0.001437625024,0.012071,0.3733713758592,0.0042563742208,-0.0017666256256,0.927670374656,0.001438625024,0.001437625024,0.012071,2.542546,0.0,0.0,0.00774236218624,0.0,0.0,0.00620382314496,0.0,0.0,0.0,-2.998945903344463
2023-09-08 16:04:56.440,-0.01169,-0.055776,0.019061,0.087195,0.087194,0.069242,48.359258,-4.557284,50.962224,50.787003,0.629627,0.628679,0.62527,-0.080221,-0.010914,-9.80514,0.027387,-0.015648,0.030704,32.926876,-0.080817,-0.010997,-9.806581,0.02793,-0.015712,0.030405,-0.3190146052608,-0.3316443708416,0.80652448544,-0.0773039994752,-0.0076406305664,-9.8088426486656,0.0175898043105162,359.45884136249896,136.17694181680525,0.001433,0.001432,0.012071,0.37317,0.004439,-0.00162,0.927751,0.001433,0.001432,0.012071,2.542546,0.0,0.0,0.0078159,0.0,0.0,0.0066386,0.0,0.0,0.0,-2.974194020987227
2023-09-08 16:04:56.465,-0.0114675005696,-0.055585375488,0.0189772502144,0.0875287491456,0.0875277491455999,0.0694138745599999,48.359258,-4.557284,50.9617915011072,50.787003,0.6305982475136,0.6296464975232,0.6260706229504,-0.0827828684416,-0.009354628992,-9.8090131150848,0.0294719946624,-0.0145436278272,0.0304396256768,32.927007249664,-0.0834613682304,-0.0102457519232,-9.809890366528,0.0297687452928,-0.0143857533952,0.03034250016,-0.311304,-0.33002,0.800837,-0.077099,-0.009815,-9.818087,0.0600243823795948,359.4406499990736,136.21837372129968,0.0014348749952,0.0014338749952,0.012071,0.3728318758656,0.0047246242688,-0.0013337507328,0.9278859996544,0.0014348749952,0.0014338749952,0.012071,2.542546,0.0,0.0,0.00793846218624,0.0,0.0,0.00736322314496,0.0,0.0,0.0,-2.932762116492796
2023-09-08 16:04:56.480,-0.011334,-0.055471,0.018927,0.087729,0.087728,0.069517,48.359258,-4.557284,50.961532,50.787003,0.631181,0.630227,0.626551,-0.08432,-0.008419,-9.811337,0.030723,-0.013881,0.030281,32.927086,-0.085048,-0.009795,-9.811876,0.030872,-0.01359,0.030305,-0.3103091207552,-0.3288739951104,0.7962226053120001,-0.0821528965632,-0.0101682515072,-9.818087,0.0854853030335188,359.4297351065063,136.24323303370184,0.001436,0.001435,0.012071,0.372629,0.004896,-0.001162,0.927967,0.001436,0.001435,0.012071,2.542546,0.0,0.0,0.008012,0.0,0.0,0.007798,0.0,0.0,0.0,-2.9079028040906394
2023-09-08 16:04:56.505,-0.0113471249664,-0.055333500352,0.0184251262848,0.0880633741439999,0.0880623741439999,0.0696876245632,48.359258,-4.557284,50.9611201260544,50.787003,0.6321641224832,0.6312057474944001,0.6273578729344,-0.084823123712,-0.0118571161984,-9.8155601141888,0.0315411229055999,-0.0129078774911999,0.030002875712,32.927395999206404,-0.0848361255424,-0.0116374952832,-9.815597865472,0.0315519982592,-0.012686877312,0.0301106254975999,-0.308651,-0.326964,0.788532,-0.090576,-0.010757,-9.818087,0.1294955110055842,359.41351328045965,136.28602570947615,0.0014378749952,0.0014368749952,0.0120747499903999,0.3722802508928,0.0051703742976,-0.0008563757824,0.9281057496448,0.0014378749952,0.0014368749952,0.0120747499903999,2.542546,0.0,0.0,0.00804383325184,0.0,0.0,0.00707875184128,0.0,0.0,0.0,-2.8651101283163314
2023-09-08 16:04:56.520,-0.011355,-0.055251,0.018124,0.088264,0.088263,0.06979,48.359258,-4.557284,50.960873,50.787003,0.632754,0.631793,0.627842,-0.085125,-0.01392,-9.818094,0.032032,-0.012324,0.029836,32.927582,-0.084709,-0.012743,-9.817831,0.03196,-0.012145,0.029994,-0.3117770133376,-0.3257137446656,0.7993804212864,-0.0905088747136,-0.0139767637376,-9.8174333722112,0.1559018160550969,359.40378011838686,136.31170149022,0.001439,0.001438,0.012077,0.372071,0.005335,-0.000673,0.928189,0.001439,0.001438,0.012077,2.542546,0.0,0.0,0.0080629333333333,0.0,0.0,0.0066472,0.0,0.0,0.0,-2.839434347572478
2023-09-08 16:04:56.545,-0.0123829140352,-0.0553828746624,0.0173794185728,0.0883834788608,0.0883823746944,0.0698538540032,48.359258,-4.557284,50.9603678971264,50.7871070622336,0.6334369149184,0.6324731024256001,0.62844876928,-0.0837231285888,-0.0140612496384,-9.8190046226688,0.0310345025536,-0.0111190030848,0.030135999232,32.9276963747072,-0.0835171280512,-0.0147973697407999,-9.8193391211392,0.0309181276672,-0.0109862529664,0.0301446246144,-0.316987,-0.32363,0.817461,-0.090397,-0.019343,-9.816344,0.1974769596316372,359.3902082153588,136.35216653091035,0.0014408749951999,0.0014398749952,0.012077,0.3717410008448,0.0055806243712,-0.0003786257536,0.9283196246656,0.0014408749951999,0.0014398749952,0.012077,2.542546,0.0,0.0,0.0080947665851733,0.0,0.0,0.00592795184128,0.0,0.0,0.0,-2.798969306882128
2023-09-08 16:04:56.560,-0.0129996666666666,-0.055462,0.0169326666666666,0.0884551666666666,0.0884539999999999,0.0698921666666666,48.359258,-4.557284,50.96006483333333,50.7871695,0.6338466666666667,0.6328811666666667,0.6288128333333334,-0.082882,-0.014146,-9.819551,0.030436,-0.010396,0.030316,32.927765,-0.082802,-0.01603,-9.820244,0.030293,-0.010291,0.030235,-0.3169506248448,-0.32340267403008,0.81836490385664,-0.08794696454656,-0.0184045209958399,-9.81537117084928,0.2224222160697855,359.3820650179514,136.3764457210698,0.001442,0.001441,0.012077,0.371543,0.005728,-0.000202,0.928398,0.001442,0.001441,0.012077,2.542546,0.0,0.0,0.0081138666666666,0.0,0.0,0.0054964,0.0,0.0,0.0,-2.7746901167226667
2023-09-08 16:04:56.745,-0.0206062473685333,-0.0564378746623999,0.0114227519061333,0.0893393121941333,0.0893373746944,0.0703646873365333,48.359258,-4.557284,50.95632706379307,50.7879395622336,0.6389002482517334,0.6379139357589333,0.6333029359466666,-0.0805038258227199,-0.01620227428864,-9.80474360512256,-0.01109093563392,-0.0007482533376,0.0343092236185599,32.92576422569216,-0.07950807613952,-0.0151993502873599,-9.8067528796672,-0.0117852354432,-0.0004924783897599,0.03437252356864,-0.316502,-0.320599,0.829513,-0.05773,-0.00683,-9.803373,0.272293877699555,359.35037186847785,136.70752783605508,0.00144477499904,0.00144284999936,0.01207884999936,0.36885495092992,0.00614517485568,0.0001171248896,0.9294663746304,0.00144477499904,0.00144284999936,0.01207884999936,2.542546,0.0,0.0,0.00834943325184,0.0,0.0,0.00017395184128,0.0,0.0,0.0,-2.4436080017374024
2023-09-08 16:04:56.760,-0.021223,-0.056517,0.010976,0.089411,0.089409,0.070403,48.359258,-4.557284,50.956024,50.788002,0.63931,0.638322,0.633667,-0.080311,-0.016369,-9.803543,-0.014458,3.4e-05,0.034633,32.925602,-0.079241,-0.015132,-9.805659,-0.015197,0.000302,0.034708,-0.314503241472,-0.3206413751808,0.820276710592,-0.0634776495232,-0.006329372864,-9.8000531108352,0.276337544591596,359.34780214180256,136.734372455688,0.001445,0.001443,0.012079,0.368637,0.006179,0.000143,0.929553,0.001445,0.001443,0.012079,2.542546,0.0,0.0,0.0083685333333333,0.0,0.0,-0.0002575999999999,0.0,0.0,0.0,-2.4167633821044774
2023-09-08 16:04:56.780,-0.022944,-0.056189,0.010575,0.088635,0.088633,0.0700244999999999,48.359258,-4.557284,50.956069,50.788002,0.638582,0.637596,0.633312,-0.077306,-0.0155335,-9.8018,-0.0193105,0.0004179999999999,0.035128,32.9260065,-0.077476,-0.0144485,-9.8019275,-0.020077,0.0006125,0.0351594999999999,-0.311838241472,-0.3206978751808,0.8079617105920001,-0.0711411495232,-0.005661872864,-9.7956266108352,0.2463145561267408,359.3491772405109,136.77319034630813,0.00144,0.0014385,0.0120784999999999,0.3683235,0.0060715,-9.400000000000004e-05,0.9296775,0.00144,0.0014385,0.0120784999999999,2.542546,0.0,0.0,0.008394,0.0,0.0,-0.000833,0.0,0.0,0.0,-2.377945491484354
2023-09-08 16:04:56.785,-0.0233742444927999,-0.0561070010496,0.0104747512832,0.0884410024832,0.0884390024832,0.0699298762112,48.359258,-4.557284,50.956080249856,50.788002,0.6384000023296,0.6374145023232,0.633223251136,-0.076554759616,-0.0153246276736,-9.8013642555776,-0.020523609472,0.0005139987712,0.035251748416,32.9261076237056,-0.077034755648,-0.0142776271872,-9.8009946369408,-0.021296984384,0.0006901240064,0.0352723735552,-0.311172,-0.320712,0.804883,-0.073057,-0.005495,-9.79452,0.2388089050840902,359.34952101078767,136.7828946947459,0.001438750016,0.0014373750144,0.0120783750016,0.3682451260032,0.006044625344,-0.0001532492416,0.9297086246016,0.001438750016,0.0014373750144,0.0120783750016,2.542546,0.0,0.0,0.008376500224,0.0,0.0,-0.0008927492352,0.0,0.0,0.0,-2.368241143046589
2023-09-08 16:04:56.800,-0.024665,-0.055861,0.010174,0.087859,0.087857,0.069646,48.359258,-4.557284,50.956114,50.788002,0.637854,0.63687,0.632957,-0.074301,-0.014698,-9.800057,-0.024163,0.000802,0.035623,32.926411,-0.075711,-0.013765,-9.798196,-0.024957,0.000923,0.035611,-0.3113171256192,-0.3148578500224,0.8018931122432,-0.0755481356288,-0.0056941258496,-9.792389990912,0.2162915676618858,359.35055233921923,136.81200823692822,0.001435,0.001434,0.012078,0.36801,0.005964,-0.000331,0.929802,0.001435,0.001434,0.012078,2.542546,0.0,0.0,0.008324,0.0,0.0,-0.001072,0.0,0.0,0.0,-2.339127600864259
2023-09-08 16:04:56.825,-0.0255612477056,-0.0558528750208,0.0099715005184,0.0881927491456,0.0881907491456,0.0698166245632,48.359258,-4.557284,50.9559027505408,50.788002,0.6388452474624,0.637857497472,0.6337713729152,-0.074201000256,-0.0147367499008,-9.794672638784,-0.029291111872,0.0015107481856,0.0358361244544,32.9270853732736,-0.0740435042687999,-0.0136293753471999,-9.7943728847872,-0.0298607374464,0.0015992482687999,0.0358447494016,-0.311559,-0.305101,0.79691,-0.0797,-0.006026,-9.78884,0.1673754211282474,359.3545630335177,136.8608169541503,0.0014368749952,0.0014358749951999,0.0120773750016,0.3676168760064,0.0057752504832,-0.0007128740224,0.9299588745984,0.0014368749952,0.0014358749951999,0.0120773750016,2.542546,0.0,0.0,0.008236500224,0.0,0.0,-0.0013707492351999,0.0,0.0,0.0,-2.290318883642186
2023-09-08 16:04:56.840,-0.026099,-0.055848,0.00985,0.088393,0.088391,0.069919,48.359258,-4.557284,50.955776,50.788002,0.63944,0.63845,0.63426,-0.074141,-0.01476,-9.791442,-0.032368,0.001936,0.035964,32.92749,-0.073043,-0.013548,-9.792079,-0.032803,0.002005,0.035985,-0.3124687538816,-0.3120921548288,0.803009401024,-0.078676245632,-0.00679475328,-9.785247484672,0.1380255328470153,359.3569694665247,136.89010238440457,0.001438,0.001437,0.012077,0.367381,0.005662,-0.000942,0.930053,0.001438,0.001437,0.012077,2.542546,0.0,0.0,0.008184,0.0,0.0,-0.0015499999999999,0.0,0.0,0.0,-2.2610334533879097
2023-09-08 16:04:56.865,-0.0268921229696,-0.0557430002688,0.0098599999744,0.0887267491456,0.0887247491456,0.0700889995648,48.359258,-4.557284,50.955563500544,50.788002,0.640443122432,0.6394493724415999,0.6350799979008,-0.0727428785791999,-0.0096781380096,-9.790685751936,-0.0354154921984,0.0026697481216,0.0358165003776,32.9276162496768,-0.0723392518016,-0.0093098858495999,-9.78906338272,-0.0357286175104,0.0025193736831999,0.0358431253632,-0.313985,-0.323744,0.813175,-0.07697,-0.008076,-9.77926,0.0824129592256826,359.36219769302096,136.93977053611917,0.0014398749952,0.0014388749952,0.0120763750016,0.3669803760256,0.0054413755648,-0.0013738738943999,0.9302117495936,0.0014398749952,0.0014388749952,0.0120763750016,2.542546,0.0,0.0,0.008096500224,0.0,0.0,-0.0018487492352,0.0,0.0,0.0,-2.211365301673311
2023-09-08 16:04:56.880,-0.027368,-0.05568,0.009866,0.088927,0.088925,0.070191,48.359258,-4.557284,50.955436,50.788002,0.641045,0.640049,0.635572,-0.071904,-0.006629,-9.790232,-0.037244,0.00311,0.035728,32.927692,-0.071917,-0.006767,-9.787254,-0.037484,0.002828,0.035758,-0.3118103657216,-0.3203172353792,0.8084672299136,-0.0791663843712,-0.0104737602304,-9.7801105036288,0.0490451872631984,359.3653346503336,136.9695716305892,0.001441,0.00144,0.012076,0.36674,0.005309,-0.001633,0.930307,0.001441,0.00144,0.012076,2.542546,0.0,0.0,0.008044,0.0,0.0,-0.002028,0.0,0.0,0.0,-2.18156420720328
2023-09-08 16:04:56.905,-0.02761799936,-0.055245626112,0.0098478750464,0.089261374144,0.089259374144,0.0703609995648,48.359258,-4.557284,50.9552222505472,50.788002,0.6420599974016,0.6410596224128,0.6363982478848,-0.0753196162559999,-0.0086996196992,-9.7900638754304,-0.0378577484288,0.0034518741248,0.0354223757824,32.92755137536,-0.0753094913152,-0.0089563693952,-9.7904277418752,-0.0378233741312,0.0035948730368,0.0353192511231999,-0.308186,-0.314606,0.800621,-0.082827,-0.01447,-9.781528,224.9921046084609,359.372424984897,137.01963368977957,0.0014428749952,0.0014418749952,0.0120797499904,0.3663362510336,0.0050721256064,-0.0020661238912,0.930466374592,0.0014428749952,0.0014418749952,0.0120797499904,2.542546,0.0,0.0,0.00797450017792,0.0,0.0,-0.00196512516096,0.0,0.0,0.0,-2.1315021480129133
2023-09-08 16:04:56.920,-0.027768,-0.054985,0.009837,0.089462,0.08946,0.070463,48.359258,-4.557284,50.955094,50.788002,0.642669,0.641666,0.636894,-0.077369,-0.009942,-9.789963,-0.038226,0.003657,0.035239,32.927467,-0.077345,-0.01027,-9.792332,-0.038027,0.004055,0.035056,-0.3104296345728,-0.3168545095936,0.8038268886784,-0.0836047533184,-0.0099021055104,-9.7866707719424,359.9588616303096,359.37667921467715,137.0496711303485,0.001444,0.001443,0.012082,0.366094,0.00493,-0.002326,0.930562,0.001444,0.001443,0.012082,2.542546,0.0,0.0,0.0079328,0.0,0.0,-0.0019274,0.0,0.0,0.0,-2.101464707443995
2023-09-08 16:04:56.945,-0.0276619065216,-0.0538296904576,0.0095515319808,0.0893951251712,0.0893931251712,0.0704355000704,48.3592578437504,-4.557284,50.955251030848,50.788002,0.6430827489408001,0.6420780301951999,0.637326811392,-0.0759246286976,-0.0084545038079999,-9.7901136246144,-0.0362591300352,0.0042094985856,0.0344977518976,32.9274788749696,-0.0754318798976,-0.00809813056,-9.7910363783168,-0.0360188801408,0.00432062432,0.034359126784,-0.314169,-0.320602,0.80917,-0.084901,-0.002289,-9.795242,359.9071165119047,359.38444993488054,137.09554344638772,0.0014458749951999,0.0014448749952,0.012082,0.3657240009472,0.0047031255808,-0.0027191239936,0.9307076246272,0.0014458749951999,0.0014448749952,0.012082,2.542546,0.0,0.0,0.00786330017792,0.0,0.0,-0.00186452516096,0.0,0.0,0.0,-2.0555923914047582
2023-09-08 16:04:56.960,-0.02759825,-0.0531365,0.00938025,0.089355,0.089353,0.070419,48.35925775,-4.557284,50.95534525,50.788002,0.6433310000000001,0.64232525,0.6375865,-0.075058,-0.007562,-9.790204,-0.035079,0.004541,0.034053,32.927486,-0.074284,-0.006795,-9.790259,-0.034814,0.00448,0.033941,-0.3139011551071999,-0.3211933775232,0.8083898091712,-0.08366349472,-0.0025169072224,-9.798381700896,359.8760692289132,359.3891123988315,137.12306702390475,0.001447,0.001446,0.012082,0.365502,0.004567,-0.002955,0.930795,0.001447,0.001446,0.012082,2.542546,0.0,0.0,0.0078216,0.0,0.0,-0.0018268,0.0,0.0,0.0,-2.028068813887728
2023-09-08 16:04:57.080,-0.027089,-0.047591,0.00801,0.089034,0.089032,0.070287,48.359257,-4.557284,50.956099,50.788002,0.645317,0.644303,0.639664,-0.07394575,-0.00455825,-9.81231625,-0.00561075,0.00628925,0.03102825,32.92803275,-0.073861,-0.0047295,-9.81334775,-0.0049564999999999,0.006247,0.03093125,-0.3117584051072,-0.3259243775231999,0.8021483091712,-0.07376349472,-0.0043401572224,-9.823499200896,359.7844532774718,359.436123585922,137.32903102730938,0.0014447499999999,0.00144375,0.01208575,0.36383,0.003794,-0.003868,0.93145,0.001441,0.00144,0.012081,2.542546,0.0,0.0,0.007488,0.0,0.0,-0.001525,0.0,0.0,0.0,-1.822104810483097
2023-09-08 16:04:57.105,-0.0262677521024,-0.0462835033472,0.0074912513279999,0.0893683741439999,0.0893663741439999,0.0704563745664,48.359257,-4.557284,50.9559133754752,50.788002,0.6463376223872,0.6453192473984,0.640495247872,-0.0737140318432,-0.003932470352,-9.8169229569568,0.0005284530335999,0.0066534678176,0.0303980953632,32.9281466559584,-0.0737728752256,-0.0042991886016,-9.818157893936,0.001263796576,0.0066151240575999,0.0303042203552,-0.311312,-0.32691,0.800848,-0.071701,-0.00472,-9.828732,359.76536666978336,359.44591755815986,137.3719400848379,0.0014442812512,0.0014432812512,0.012086531248,0.3634825008896,0.0037208751872,-0.0037873752064,0.9315862496512,0.0014428749952,0.0014418749952,0.0120847499904,2.542546,0.0,0.0,0.00738187527168,0.0,0.0,-0.00215037339904,0.0,0.0,0.0,-1.7791957529545923
2023-09-08 16:04:57.120,-0.025775,-0.045499,0.00718,0.089569,0.089567,0.070558,48.359257,-4.557284,50.955802,50.788002,0.64695,0.645929,0.640994,-0.073575,-0.003557,-9.819687,0.004212,0.006872,0.03002,32.928215,-0.07372,-0.004041,-9.821044,0.004996,0.006836,0.029928,-0.3146862643968,-0.3267839994624,0.8056701455744,-0.0712288729856,-0.0050316263296,-9.8294073778816,359.75391462699133,359.45179398161883,137.39768569511094,0.001444,0.001443,0.012087,0.363274,0.003677,-0.003739,0.931668,0.001444,0.001443,0.012087,2.542546,0.0,0.0,0.0073181999999999,0.0,0.0,-0.0025256,0.0,0.0,0.0,-1.753450142681544
2023-09-08 16:04:57.145,-0.0251659390592,-0.0447377519487999,0.0061376589184,0.0894425940736,0.0894404378239999,0.0705008126464,48.359257,-4.557284,50.9562573113344,50.788002,0.6472715616768,0.6462491554304,0.6413671240448,-0.0760912435584,-0.0037469995135999,-9.8269076065152,0.012177604608,0.0074826234368,0.0296593759232,32.928868123328,-0.0756774949888,-0.00330662688,-9.828040857088,0.0129291046912,0.0076153730048,0.0296155008,-0.32031,-0.326574,0.813707,-0.070442,-0.005551,-9.830533,359.7775132657656,359.464828738089,137.43804330648973,0.0014452499968,0.0014442499968,0.012087,0.3629452508416,0.0036470000768,-0.0035046256,0.9317967496704,0.0014452499968,0.0014442499968,0.012087,2.542546,0.0,0.0,0.00721207527168,0.0,0.0,-0.00315097339904,0.0,0.0,0.0,-1.713092531302749
2023-09-08 16:04:57.160,-0.0248005,-0.044281,0.00551225,0.08936675,0.0893645,0.0704665,48.359257,-4.557284,50.9565305,50.788002,0.6474645,0.64644125,0.641591,-0.077601,-0.003861,-9.83124,0.016957,0.007849,0.029443,32.92926,-0.076852,-0.002866,-9.832239,0.017689,0.008083,0.029428,-0.3211552536063999,-0.3265415623616,0.8149120676416,-0.0712494721952,-0.0066337233696,-9.830547531312002,359.79167254569046,359.4726496453616,137.4622580386222,0.001446,0.001445,0.012087,0.362748,0.003629,-0.003364,0.931874,0.001446,0.001445,0.012087,2.542546,0.0,0.0,0.0071484,0.0,0.0,-0.0035262,0.0,0.0,0.0,-1.6888777991702852
2023-09-08 16:04:57.280,-0.021877,-0.040627,0.000509,0.08876,0.088757,0.070192,48.359257,-4.557284,50.958716,50.788002,0.649008,0.647978,0.643382,-0.0752565,-0.01179825,-9.83190075,0.039214,0.0092605,0.02966425,32.92825275,-0.07494175,-0.0113065,-9.83125275,0.039559,0.00921775,0.0297475,-0.3279172536064,-0.3262820623616,0.8245525676416,-0.0777092221952,-0.0152954733696,-9.830663781312,90.05319913127789,359.5433383133359,137.65649073117154,0.00144225,0.00144125,0.01209,0.361189,0.003832,-0.00115,0.932484,0.001438,0.001437,0.012085,2.542546,0.0,0.0,0.006639,0.0,0.0,-0.006528,0.0,0.0,0.0,-1.4946451066209363
2023-09-08 16:04:57.305,-0.0216951254656,-0.0407507496832,-0.0002841229696,0.089094374144,0.089091374144,0.0703613745664,48.359257,-4.5572846249984,50.9587141250048,50.788002,0.6500261223936,0.6489917474048,0.6442138728704,-0.0747680637504,-0.0134518395167999,-9.8320384058976,0.0438508631296,0.0095545617472,0.029710343632,32.9280429067872,-0.0745437822688,-0.0130649329984,-9.831047281776,0.044115238336,0.0094541556448,0.0298140623296,-0.329326,-0.326228,0.826561,-0.079055,-0.0171,-9.830688,33.85782769712773,359.5580650814632,137.6969557718619,0.001441468752,0.001440468752,0.0120906249984,0.3608402508928,0.003916374784,-0.0005693764864,0.9326189996544,0.0014398749952,0.0014388749952,0.0120887499904,2.542546,0.0,0.0,0.00641287557888,0.0,0.0,-0.00706087363584,0.0,0.0,0.0,-1.4541800659305864
2023-09-08 16:04:57.320,-0.021586,-0.040825,-0.00076,0.089295,0.089292,0.070463,48.359257,-4.557285,50.958713,50.788002,0.650637,0.6496,0.644713,-0.074475,-0.014444,-9.832121,0.046633,0.009731,0.029738,32.927917,-0.074305,-0.01412,-9.830924,0.046849,0.009596,0.029854,-0.3292063744896,-0.3239164901376,0.8295808878848,-0.0778767449728,-0.0085057133312,-9.829219868736,0.1403746598070517,359.56690120266063,137.72123496202133,0.001441,0.00144,0.012091,0.360631,0.003967,-0.000221,0.9327,0.001441,0.00144,0.012091,2.542546,0.0,0.0,0.0062772,0.0,0.0,-0.0073806,0.0,0.0,0.0,-1.429900875771153
2023-09-08 16:04:57.345,-0.0234066203392,-0.041521873216,-0.0009859369216,0.0885150019968,0.0885132519936,0.0700064386687999,48.359257,-4.5572846875008,50.94857240096,50.788002,0.6422598339456,0.6412606463488,0.6368680200832,-0.0781887404928,-0.0093208881152,-9.8296297563776,0.0469961240704,0.0095272505216,0.0301323739904,32.928007624768,-0.0773399922304,-0.0090062630912,-9.8297952528896,0.0468758749312,0.0095585000959999,0.0300439995136,-0.329007,-0.320064,0.834614,-0.075913,0.005818,-9.826773,0.2058707300925747,359.5816906378864,137.7612344756949,0.0014428749952,0.0014418749952,0.0120903750016,0.3603035008384,0.0040526247808,0.000360248512,0.9328262496768,0.0014428749952,0.0014418749952,0.0120903750016,2.542546,0.0,0.0,0.00605107557888,0.0,0.0,-0.00791347363584,0.0,0.0,0.0,-1.3899013620975893
2023-09-08 16:04:57.360,-0.024499,-0.04194,-0.0011215,0.088047,0.088046,0.0697325,48.359257,-4.5572845,50.942488,50.788002,0.6372335,0.636257,0.632161,-0.080417,-0.006247,-9.828135,0.047214,0.009405,0.030369,32.928062,-0.079161,-0.005938,-9.829118,0.046892,0.009536,0.030158,-0.3291086254336,-0.3182975549632,0.8323615528896,-0.0767548785919999,0.0039924922112,-9.8220541673664,0.2451686405364792,359.5905643595995,137.78523434773746,0.001444,0.001443,0.01209,0.360107,0.004104,0.000709,0.932902,0.001444,0.001443,0.01209,2.542546,0.0,0.0,0.0059154,0.0,0.0,-0.0082332,0.0,0.0,0.0,-1.3659014900550233
2023-09-08 16:04:57.400,-0.027412,-0.043055,-0.001483,0.086799,0.0868,0.069002,48.359257,-4.557284,50.926263,50.788002,0.62383,0.622914,0.619609,-0.0788665,-0.009508,-9.8224295,0.042313,0.008657,0.0305945,32.9281155,-0.0781525,-0.0090955,-9.822859,0.0418155,0.0087155,0.0304645,-0.3293796254336,-0.3135870549632,0.8263550528896,-0.078999878592,-0.0008755077888,-9.8094706673664,0.3349797749232357,359.61007357252373,137.85152556463407,0.001438,0.001437,0.0120889999999999,0.359557,0.004254,0.001571,0.933112,0.00143,0.001429,0.012089,2.542546,0.0,0.0,0.0055536,0.0,0.0,-0.0090858,0.0,0.0,0.0,-1.2996102731584074
2023-09-08 16:04:57.425,-0.0278582488576,-0.0444074965376,-0.0017073744256,0.0871327491456,0.0871337491456,0.06917387456,48.359257,-4.557284,50.9263029998976,50.788002,0.6247843725568001,0.6238646225664,0.6203977479807999,-0.0778974399808,-0.0115461197824,-9.8188635716288,0.0392498828416,0.0081895011968,0.0307354371392,32.9281489374144,-0.0775221891136,-0.011068932448,-9.8189471350144,0.0386426956224,0.0082026888127999,0.0306560620096,-0.329549,-0.310643,0.822601,-0.080403,-0.003918,-9.801606,0.3911115902171436,359.62226679938664,137.89295746912853,0.0014342500095999,0.0014332500096,0.0120883750016,0.359222625856,0.0043127498496,0.0020259988352,0.9332394996736,0.0014312499967999,0.0014302499968,0.0120883750016,2.542546,0.0,0.0,0.00532747557888,0.0,0.0,-0.00961867363584,0.0,0.0,0.0,-1.2581783686639485
2023-09-08 16:04:57.440,-0.028126,-0.045219,-0.001842,0.087333,0.087334,0.069277,48.359257,-4.557284,50.926327,50.788002,0.625357,0.624435,0.620871,-0.077316,-0.012769,-9.816724,0.037412,0.007909,0.03082,32.928169,-0.077144,-0.012253,-9.8166,0.036739,0.007895,0.030771,-0.3273548656384,-0.3118850052992,0.8178774798464,-0.085609897216,-0.0090967720959999,-9.8008567468032,0.4247909093099923,359.62958278544795,137.91781678153072,0.001432,0.001431,0.012088,0.359022,0.004348,0.002299,0.933316,0.001432,0.001431,0.012088,2.542546,0.0,0.0,0.0051918,0.0,0.0,-0.0099384,0.0,0.0,0.0,-1.233319056261763
2023-09-08 16:04:57.465,-0.028660373632,-0.0470652452736,-0.0016207505664,0.087667374144,0.087668374144,0.0694482495616,48.359257,-4.5572846249984,50.9263526249344,50.788002,0.6263232475264,0.6253974975359999,0.6216659979647999,-0.0811391152128,-0.0118527523456,-9.8085227709952,0.0317407645184,0.006793377856,0.030801250048,32.9288364982912,-0.081731488256,-0.012724873792,-9.8073168987648,0.0308777650048,0.0067150030207999,0.0309353745792,-0.323698,-0.313955,0.810005,-0.094288,-0.017728,-9.799608,0.4623553585880205,359.6391081844069,137.96046621822293,0.0014338749952,0.0014328749951999,0.012088,0.3586732508928,0.0043867499008,0.002636499136,0.9334491246592,0.0014338749952,0.0014328749951999,0.012088,2.542546,0.0,0.0,0.00496567557888,0.0,0.0,-0.01047127363584,0.0,0.0,0.0,-1.1906696195695474
2023-09-08 16:04:57.480,-0.028981,-0.048173,-0.001488,0.087868,0.087869,0.069551,48.359257,-4.557285,50.926368,50.788002,0.626903,0.625975,0.622143,-0.083433,-0.011303,-9.803602,0.028338,0.006124,0.03079,32.929237,-0.084484,-0.013008,-9.801747,0.027361,0.006007,0.031034,-0.3247735045888,-0.3104221099264,0.8131298883328,-0.0916063635584,-0.0196851333504,-9.7992408734336,0.4848941820192157,359.6448234627984,137.9860560549308,0.001435,0.001434,0.012088,0.358464,0.00441,0.002839,0.933529,0.001435,0.001434,0.012088,2.542546,0.0,0.0,0.00483,0.0,0.0,-0.010791,0.0,0.0,0.0,-1.1650797828616817
2023-09-08 16:04:57.505,-0.029584123456,-0.0499911203456,-0.0013736252928,0.0882023741439999,0.088203374144,0.0697216245632,48.359257,-4.557285,50.9263717499904,50.788002,0.6278804974976,0.6269487475072,0.6229442479488,-0.081451755072,-0.0137736186752,-9.8036694998272,0.0214398926592,0.00468650368,0.0311049991936,32.9288888758912,-0.0814083828736,-0.014761120512,-9.8029676218752,0.0206178922624,0.00450700384,0.0310533749504,-0.326566,-0.304534,0.818338,-0.087137,-0.022947,-9.798629,0.507024620202077,359.6508753140167,138.0304601703786,0.0014368749952,0.0014358749951999,0.0120917499904,0.3581021259264,0.004428749952,0.0030402494848,0.9336671246464,0.0014368749952,0.0014358749951999,0.0120917499904,2.542546,0.0,0.0,0.0047020836608,0.0,0.0,-0.01003775192832,0.0,0.0,0.0,-1.1206756674138774
2023-09-08 16:04:57.520,-0.029946,-0.051082,-0.001305,0.088403,0.088404,0.069824,48.359257,-4.557285,50.926374,50.788002,0.628467,0.627533,0.623425,-0.080263,-0.015256,-9.80371,0.017301,0.003824,0.031294,32.92868,-0.079563,-0.015813,-9.8037,0.016572,0.003607,0.031065,-0.3267580008192,-0.3045009998592,0.8138207307264,-0.0846608644352,-0.0223871226112,-9.7967701170688,0.5203029737583006,359.6545064495361,138.05710282152702,0.001438,0.001437,0.012094,0.357885,0.00444,0.003161,0.93375,0.001438,0.001437,0.012094,2.542546,0.0,0.0,0.0046253333333333,0.0,0.0,-0.0095858,0.0,0.0,0.0,-1.094033016265456
2023-09-08 16:04:57.545,-0.03047962363392,-0.05254487125504,-0.000489377088,0.0884423748992,0.08844324989952,0.069848999936,48.35925687500032,-4.557285,50.92613925060096,50.788002,0.62903312355072,0.62809662355712,0.62395324864768,-0.081134872768,-0.0183166171648,-9.7966618930432,0.00970726944,0.0023565037568,0.0314702495488,32.9282225011712,-0.0812117457792,-0.0187392425088,-9.797000017152,0.0086901451775999,0.002244503488,0.0314849989248,-0.327078,-0.304446,0.806292,-0.080534,-0.021454,-9.793672,0.5243494778273351,359.6574428507189,138.1005042634002,0.0014398749952,0.0014388749952,0.0120933750016,0.3575312509056,0.004427500032,0.003204749888,0.9338849996544,0.0014398749952,0.0014388749952,0.0120933750016,2.542546,0.0,0.0,0.0044974169941333,0.0,0.0,-0.00883255192832,0.0,0.0,0.0,-1.0506315743922698
2023-09-08 16:04:57.560,-0.0307998,-0.0534226,0.0,0.088466,0.0884668,0.069864,48.3592568,-4.557285,50.925998400000005,50.788002,0.6293728,0.6284348,0.6242702,-0.081658,-0.020153,-9.792433,0.005151,0.001476,0.031576,32.927948,-0.082201,-0.020495,-9.79298,0.003961,0.001427,0.031737,-0.32699362464,-0.3059179750303999,0.808168883008,-0.0804949060832,-0.0216267819872,-9.7933506236288,0.526777396843279,359.65920470345617,138.1265453062969,0.001441,0.00144,0.012093,0.357319,0.00442,0.003231,0.933966,0.001441,0.00144,0.012093,2.542546,0.0,0.0,0.0044206666666666,0.0,0.0,-0.0083806,0.0,0.0,0.0,-1.0245905314955903
2023-09-08 16:04:57.705,-0.03389482363392,-0.0619072712550399,0.004730622912,0.0886943748992,0.08869444989952,0.070008999936,48.35925607500032,-4.557285,50.92463685060096,50.788002,0.63265632355072,0.63170382355712,0.6273340486476799,-0.0778599079263999,-0.0162579392192,-9.7888451578336,-0.0371935125599999,-0.0075103710336,0.0327423432352,32.9273118127808,-0.0788215952416,-0.0173466888896,-9.7891701266816,-0.0376829816192,-0.0077524021983999,0.0328217807712,-0.326178,-0.320147,0.826312,-0.080117,-0.023297,-9.790244,0.3001279265797247,359.62560969606545,138.38211659899727,0.0014391875008,0.0014381875008,0.0120966249984,0.3552418759168,0.003985000192,0.0012870946079999,0.9347644058976,0.0014391875008,0.0014381875008,0.0120966249984,2.542546,0.0,0.0,0.0036787503274666,0.0,0.0,-0.0040117519283199,0.0,0.0,0.0,-0.7690192387952095
2023-09-08 16:04:57.720,-0.034215,-0.062785,0.00522,0.088718,0.088718,0.070024,48.359256,-4.557285,50.924496,50.788002,0.632996,0.632042,0.627651,-0.077467,-0.015855,-9.788474,-0.041574,-0.00844,0.032863,32.927246,-0.078472,-0.017021,-9.788776,-0.041991,-0.008702,0.032934,-0.3275733809536,-0.3153942297216,0.821913231232,-0.0799362492288,-0.0204867380096,-9.7893428711552,0.2766813192686745,359.6221343341112,138.40855513306028,0.001439,0.001438,0.012097,0.355027,0.00394,0.001086,0.934847,0.001439,0.001438,0.012097,2.542546,0.0,0.0,0.003602,0.0,0.0,-0.0035597999999999,0.0,0.0,0.0,-0.7425807047322053
2023-09-08 16:04:57.745,-0.0341031252864,-0.0637737474687999,0.0062943722496,0.089052374144,0.089052374144,0.0701933745664,48.359256,-4.557285,50.9242660005888,50.788002,0.63399599744,0.6330382474496,0.6284659979136,-0.0824432372608,-0.019220616384,-9.7858315067648,-0.0454289901312,-0.0103924950016,0.03336299872,32.927689748864,-0.0822232403968,-0.0180509973632,-9.78602600704,-0.0459072399744,-0.0105226203392,0.0334071237888,-0.329899,-0.307473,0.814582,-0.079635,-0.015803,-9.787841,0.2058854029458318,359.6065928937045,138.4534605852954,0.0014408749951999,0.0014398749952,0.0120963750016,0.3546626259327999,0.0038475002368,0.0004622515967999,0.9349863746432,0.0014408749951999,0.0014398749952,0.0120963750016,2.542546,0.0,0.0,0.0034740836608,0.0,0.0,-0.00280655192832,0.0,0.0,0.0,-0.6976752524970777
2023-09-08 16:04:57.760,-0.034036,-0.064367,0.006939,0.089253,0.089253,0.070295,48.359256,-4.557285,50.924128,50.788002,0.634596,0.633636,0.628955,-0.085429,-0.02124,-9.784246,-0.047742,-0.011564,0.033663,32.927956,-0.084474,-0.018669,-9.784376,-0.048257,-0.011615,0.033691,-0.3275972401792,-0.304067985472,0.8128854927616,-0.081438757696,-0.0179633842176,-9.7870441216,0.1634075631713107,359.59726796580253,138.48040404056968,0.001442,0.001441,0.012096,0.354444,0.003792,8.8e-05,0.93507,0.001442,0.001441,0.012096,2.542546,0.0,0.0,0.0033973333333333,0.0,0.0,-0.0023546,0.0,0.0,0.0,-0.6707317972227997
2023-09-08 16:04:57.780,-0.0342829999999999,-0.064119,0.008342,0.0882285,0.088228,0.0697925,48.359256,-4.557285,50.922259,50.7875025,0.6335385,0.6325814999999999,0.628376,-0.082464,-0.018153,-9.783834,-0.0493134999999999,-0.01287,0.033941,32.9277345,-0.0830335,-0.017747,-9.78385,-0.049588,-0.0130135,0.033947,-0.3245282401792,-0.299527985472,0.8106234927616,-0.083843757696,-0.0208438842176,-9.7859816216,0.1036480651391658,359.58125379542867,138.5177035930327,0.001436,0.001435,0.0120955,0.354141,0.003738,-0.000448,0.9351845,0.001436,0.001435,0.0120955,2.542546,0.0,0.0,0.003295,0.0,0.0,-0.001752,0.0,0.0,0.0,-0.6334322447597742
2023-09-08 16:04:57.785,-0.0343447492096,-0.0640570007936,0.0086927455104,0.0879723782784,0.08797175328,0.069666876608,48.359256,-4.557285,50.9217917559808,50.7873776265984,0.633274128384,0.6323178783744,0.6282312518528,-0.081722759488,-0.0173812598783999,-9.7837310013184,-0.0497063699712,-0.0131964958208,0.0340104991104,32.9276791257088,-0.0826733796096,-0.0175165029504,-9.7837185016832,-0.0499207457408,-0.0133631205248,0.0340109991808,-0.323761,-0.298393,0.810058,-0.084445,-0.021564,-9.785716,0.0887083818615233,359.5772503040805,138.5270283617899,0.0014345000192,0.0014335000192,0.0120953750016,0.3540652509696,0.0037245001728,-0.0005819982848,0.9352131246336,0.0014345000192,0.0014335000192,0.0120953750016,2.542546,0.0,0.0,0.00332214965248,0.0,0.0,-0.0015475359505066,0.0,0.0,0.0,-0.6241074760025924
2023-09-08 16:04:57.800,-0.03453,-0.063871,0.009745,0.087204,0.087203,0.06929,48.359256,-4.557285,50.92039,50.787003,0.632481,0.631527,0.627797,-0.079499,-0.015066,-9.783422,-0.050885,-0.014176,0.034219,32.927513,-0.081593,-0.016825,-9.783324,-0.050919,-0.014412,0.034203,-0.325996009536,-0.3029751445504,0.8132556386431999,-0.0798576054272,-0.0190638643328,-9.788335386176,0.043888567107021,359.56523962505474,138.5550031454957,0.00143,0.001429,0.012095,0.353838,0.003684,-0.000984,0.935299,0.00143,0.001429,0.012095,2.542546,0.0,0.0,0.0034036,0.0,0.0,-0.0009341333333333,0.0,0.0,0.0,-0.5961326922967771
2023-09-08 16:04:57.825,-0.0341481259775999,-0.063927249856,0.0107881223296,0.0875364991488,0.0875354991488,0.0694612495616,48.359256,-4.557285,50.92007187581439,50.787003,0.6334522475136,0.6324951225216,0.6285982479488,-0.0801027484543999,-0.0130741300992,-9.785378244992,-0.050019377216,-0.0154297467903999,0.0343927495552,32.9275773748352,-0.079518005312,-0.013125009472,-9.78571461888,-0.0497958778752,-0.015540122112,0.0343479996288,-0.329721,-0.310612,0.818585,-0.072212,-0.014897,-9.792701,224.97122749904537,359.543324045495,138.60248690120844,0.0014318749952,0.0014308749951999,0.0120943750016,0.3534523759872,0.0036415001088,-0.0016389983232,0.9354439996288,0.0014318749952,0.0014308749951999,0.0120943750016,2.542546,0.0,0.0,0.00353934965248,0.0,0.0,8.819738282666656e-05,0.0,0.0,0.0,-0.5486489365840441
2023-09-08 16:04:57.840,-0.033919,-0.063961,0.011414,0.087736,0.087735,0.069564,48.359256,-4.557285,50.919881,50.787003,0.634035,0.633076,0.629079,-0.080465,-0.011879,-9.786552,-0.0495,-0.016182,0.034497,32.927616,-0.078273,-0.010905,-9.787149,-0.049122,-0.016217,0.034435,-0.329717249984,-0.3117786299776,0.8185808749824001,-0.07480888608,-0.0134749939328,-9.790855992128,359.9285521629472,359.5301746079927,138.63097734913003,0.001433,0.001432,0.012094,0.353221,0.003616,-0.002032,0.935531,0.001433,0.001432,0.012094,2.542546,0.0,0.0,0.0036208,0.0,0.0,0.0007015999999999,0.0,0.0,0.0,-0.520158488662446
2023-09-08 16:04:57.865,-0.0332753766476799,-0.062979752512,0.01274362159616,0.08766987516928,0.08766887516928,0.06953612507136,48.359256,-4.557285,50.91833337896192,50.78712787468032,0.634444373952,0.63348337395712,0.6295038739123201,-0.0816731219072,-0.0107046280064,-9.7842170059776,-0.0461268836352,-0.017263247232,0.0343526253696,32.92744412544,-0.0820904902272,-0.0094543787136,-9.7829765106816,-0.0457626336,-0.017391996992,0.0342731254144,-0.329711,-0.313723,0.818574,-0.079137,-0.011105,-9.787781,359.86413038577734,359.50560910541435,138.6777449094323,0.0014348749952,0.0014338749952,0.0120933750016,0.3528410009728,0.0036184999936,-0.002631998464,0.9356722496384,0.0014348749952,0.0014338749952,0.0120933750016,2.542546,0.0,0.0,0.00375654965248,0.0,0.0,0.0017239307161599,0.0,0.0,0.0,-0.4733909283601747
2023-09-08 16:04:57.880,-0.0328892,-0.062391,0.0135414,0.0876301999999999,0.0876291999999999,0.0695194,48.359256,-4.557285,50.9174048,50.7872028,0.63469,0.6337278,0.6297588000000001,-0.082398,-0.01,-9.782816,-0.044103,-0.017912,0.034266,32.927341,-0.084381,-0.008584,-9.780473,-0.043747,-0.018097,0.034176,-0.3297251563104,-0.3143035024768,0.8181954358848,-0.0788663425951999,-0.010147339664,-9.7857624601376,359.8254770556032,359.49086970324674,138.70580563717414,0.001436,0.001435,0.012093,0.352613,0.00362,-0.002992,0.935757,0.001436,0.001435,0.012093,2.542546,0.0,0.0,0.003838,0.0,0.0,0.0023373333333333,0.0,0.0,0.0,-0.4453302006183435
2023-09-08 16:04:58.025,-0.02915617664768,-0.056699752512,0.02125322159616,0.08724667516928,0.08724567516928,0.06935772507136,48.359256,-4.557285,50.90842857896192,50.78792707468032,0.637064373952,0.63609057395712,0.63222307391232,-0.07902222024,-0.0024853783167999,-9.7774247211296,0.0037669163711999,-0.0142398766208,0.0295870333152,32.9268951251968,-0.0791356273151999,-0.0025248151744,-9.7773002201504,0.0049258535167999,-0.0141330642496,0.029567720784,-0.329862,-0.319915,0.814536,-0.07625,-0.00089,-9.76625,359.70771279476514,359.3621494199058,138.95628835070252,0.0014296562528,0.0014286562528,0.0120984374976,0.3505712196512,0.0043196246912,-0.0043395931552,0.9365155309152,0.0014296562528,0.0014286562528,0.0120984374976,2.542546,0.0,0.0,0.00462534965248,0.0,0.0,0.0082668640494933,0.0,0.0,0.0,-0.1948474870899588
2023-09-08 16:04:58.040,-0.02877,-0.056111,0.022051,0.087207,0.087206,0.069341,48.359256,-4.557285,50.9075,50.788002,0.63731,0.636335,0.632478,-0.078673,-0.001708,-9.776867,0.008719,-0.01386,0.029103,32.926849,-0.078593,-0.001898,-9.776972,0.009961,-0.013723,0.029091,-0.3298064997632,-0.3175926150912,0.8160498814592,-0.0786455102208,-0.0012098763648,-9.7715082724352,359.69553022766746,359.3488334658338,138.98220047754526,0.001429,0.001428,0.012099,0.35036,0.004392,-0.004479,0.936594,0.001429,0.001428,0.012099,2.542546,0.0,0.0,0.0047068,0.0,0.0,0.0088802666666666,0.0,0.0,0.0,-0.1689353602472181
2023-09-08 16:04:58.065,-0.028229376384,-0.0546072538496,0.022641623488,0.087538249152,0.087537249152,0.0695122495616,48.359256,-4.557285,50.907021876224,50.788002,0.6382862475008,0.6373074975104,0.6332836229376,-0.078332375872,0.0007826186239999,-9.7761313768832,0.0186677245312,-0.0115062560256,0.0284492516736,32.926577125696,-0.078805499456,0.0004157440768,-9.7760838772736,0.01986722464,-0.0112230064,0.0283072520064,-0.329714,-0.313722,0.818573,-0.082638,-0.001743,-9.780272,359.730731232091,359.336371665692,139.01955006820015,0.0014308749951999,0.0014298749952,0.0120983750016,0.3500531257856,0.0046019994624,-0.0042283756416,0.9367089997056,0.0014308749951999,0.0014298749952,0.0120983750016,2.542546,0.0,0.0,0.00484254965248,0.0,0.0,0.0099025973828266,0.0,0.0,0.0,-0.1315857695923341
2023-09-08 16:04:58.080,-0.027905,-0.053705,0.022996,0.087737,0.087736,0.069615,48.359256,-4.557285,50.906735,50.788002,0.638872,0.637891,0.633767,-0.078128,0.002277,-9.77569,0.024637,-0.010094,0.028057,32.926414,-0.078933,0.001804,-9.775551,0.025811,-0.009723,0.027837,-0.3297698752384,-0.3160443849088,0.8170591185408,-0.077927979904,-0.0061818939392,-9.7798433731712,359.7518519789288,359.3288945345633,139.0419599755774,0.001432,0.001431,0.012098,0.349869,0.004728,-0.004078,0.936778,0.001432,0.001431,0.012098,2.542546,0.0,0.0,0.004924,0.0,0.0,0.010516,0.0,0.0,0.0,-0.1091758622150678
2023-09-08 16:04:58.105,-0.0274606261376,-0.0521600039552,0.0231541245952,0.0880694991488,0.0880684991488,0.0697856245632,48.359256,-4.557285,50.9062556262272,50.788002,0.639859497472,0.6388747474816,0.6345782479232,-0.0784573741568,-0.0012173660544,-9.7778687444224,0.0331438532224,-0.0079983803648,0.027107002432,32.9264977497856,-0.0784536262272,-0.0032072371712,-9.7778309941632,0.0341878535552,-0.007657380288,0.0270001271424,-0.329863,-0.319915,0.814536,-0.070078,-0.01358,-9.779129,359.80621121058186,359.3211238143599,139.07977509324908,0.0014338749952,0.0014328749951999,0.0121023749888,0.3495577507967999,0.004959249408,-0.0036555010816,0.9368948747008,0.0014338749952,0.0014328749951999,0.0121023749888,2.542546,0.0,0.0,0.00506112464896,0.0,0.0,0.0101505009356799,0.0,0.0,0.0,-0.0713607445433979
2023-09-08 16:04:58.120,-0.027194,-0.051233,0.023249,0.088269,0.088268,0.069888,48.359256,-4.557285,50.905968,50.788002,0.640452,0.639465,0.635065,-0.078655,-0.003314,-9.779176,0.038248,-0.006741,0.026537,32.926548,-0.078166,-0.006214,-9.779199,0.039214,-0.006418,0.026498,-0.3288793708032,-0.3152694801792,0.8099343553664,-0.0722402592256,-0.0135942500608,-9.7855040272,359.8388269722297,359.31646135040893,139.10246431874322,0.001435,0.001434,0.012105,0.349371,0.005098,-0.003402,0.936965,0.001435,0.001434,0.012105,2.542546,0.0,0.0,0.0051434,0.0,0.0,0.0099312,0.0,0.0,0.0,-0.0486715190492645
2023-09-08 16:04:58.145,-0.0275460303488,-0.0503570647424,0.0227252513407999,0.0881161878912,0.0881151878912,0.0698164376832,48.359256,-4.557285,50.9045412849024,50.7878459066496,0.6407213743104,0.6397329680639999,0.6353957804032,-0.076886254528,-0.008745236096,-9.78375411328,0.0449054829568,-0.0038935072896,0.0259726264448,32.9270367487488,-0.076272254848,-0.0086933686528,-9.7846658610048,0.0456739834623999,-0.0035611323135999,0.0259798763264,-0.32724,-0.307527,0.802265,-0.075844,-0.013618,-9.796129,359.90801144887905,359.31520800844066,139.13666264959213,0.0014368749952,0.0014358749951999,0.012105,0.3490885007231999,0.005319874432,-0.0028382514432,0.9370706247296,0.0014368749952,0.0014358749951999,0.012105,2.542546,0.0,0.0,0.00528052464896,0.0,0.0,0.0095657009356799,0.0,0.0,0.0,-0.0144731882003554
2023-09-08 16:04:58.160,-0.02775725,-0.0498315,0.022411,0.0880245,0.0880235,0.0697735,48.359256,-4.557285,50.90368525,50.78775225,0.640883,0.6398937499999999,0.63559425,-0.075825,-0.012004,-9.786501,0.0489,-0.002185,0.025634,32.92733,-0.075136,-0.010181,-9.787946,0.04955,-0.001847,0.025669,-0.3275496263210666,-0.3079128766464,0.8043051337045334,-0.0739949921109333,-0.0139302513322666,-9.799393638929066,359.949522418249,359.314455998126,139.1571817881782,0.001438,0.001437,0.012105,0.348919,0.005453,-0.0025,0.937134,0.001438,0.001437,0.012105,2.542546,0.0,0.0,0.0053628,0.0,0.0,0.0093464,0.0,0.0,0.0,0.0060459503857259
2023-09-08 16:04:58.265,-0.0292357803488,-0.0461525647424,0.0202112513408,0.0873826878911999,0.0873816878912,0.0694729376832,48.359256,-4.557285,50.8976930349024,50.7870966566496,0.6420143743104,0.641019218064,0.6369835304032,-0.0781131236053333,-0.0138983738453333,-9.810628235293867,0.0509999987199999,0.0094971178794666,0.0272439990186666,32.9284114993408,-0.0783717480277333,-0.0142129975424,-9.8092399870208,0.0504844994304,0.0099374928170666,0.0273699989632,-0.329717,-0.310614,0.818586,-0.061052,-0.016116,-9.822246,45.26681055471397,359.3637375004414,139.30557776666615,0.0014301250048,0.0014291250048,0.0121023750016,0.3476896257493333,0.0060147496576,0.0002509983231999,0.9375898747221334,0.0014301250048,0.0014291250048,0.0121023750016,2.542546,0.0,0.0,0.00593872464896,0.0,0.0,0.00781130093568,0.0,0.0,0.0,0.1544419288736662
2023-09-08 16:04:58.280,-0.029447,-0.045627,0.019897,0.087291,0.08729,0.06943,48.359256,-4.557285,50.896837,50.787003,0.642176,0.64118,0.637182,-0.07844,-0.014169,-9.814075,0.0513,0.011166,0.027474,32.928566,-0.078834,-0.014789,-9.812282,0.050618,0.011621,0.027613,-0.3261439847552,-0.3119418806656,0.8182781236864,-0.0647018905728,-0.0156018728063999,-9.8247517606912,0.3119182236692202,359.37077774938734,139.3267772955369,0.001429,0.001428,0.012102,0.347514,0.006095,0.000644,0.937655,0.001429,0.001428,0.012102,2.542546,0.0,0.0,0.006021,0.0,0.0,0.007592,0.0,0.0,0.0,0.1756414577444331
2023-09-08 16:04:58.305,-0.030500122304,-0.046017624,0.0182957540992,0.0876228741504,0.0876218741504,0.0696006245632,48.359256,-4.557285,50.896502625856,50.787003,0.643157247488,0.6421574974976,0.6379926229248,-0.0751581334016,-0.017556491328,-9.8189643624832,0.0447381417984,0.0134716190976,0.0280621234943999,32.9284947501824,-0.0751690093824,-0.0192814884992,-9.8197401059072,0.0438636422912,0.0136947446911999,0.0281498736256,-0.320189,-0.314155,0.817765,-0.070785,-0.014745,-9.828928,0.3671726995853285,359.39323047550494,139.36752881439145,0.0014308749951999,0.0014298749952,0.0121063749888,0.3471790008576,0.0060781250431999,0.0011664986624,0.9377787496832,0.0014308749951999,0.0014298749952,0.0121063749888,2.542546,0.0,0.0,0.00598212509952,0.0,0.0,0.00612025376768,0.0,0.0,0.0,0.2163929765989678
2023-09-08 16:04:58.320,-0.031132,-0.046252,0.017335,0.087822,0.087821,0.069703,48.359256,-4.557285,50.896302,50.787003,0.643746,0.642744,0.638479,-0.073189,-0.019589,-9.821898,0.040801,0.014855,0.028415,32.928452,-0.07297,-0.021977,-9.824215,0.039811,0.014939,0.028472,-0.3227056357376,-0.311691239488,0.8149637380479999,-0.0748777674623999,-0.0156828790016,-9.8300890049536,0.4003256114579062,359.40670220314206,139.39197989262283,0.001432,0.001431,0.012109,0.346978,0.006068,0.00148,0.937853,0.001432,0.001431,0.012109,2.542546,0.0,0.0,0.0059588,0.0,0.0,0.0052372,0.0,0.0,0.0,0.2408440548303474
2023-09-08 16:04:58.345,-0.0332336612864,-0.047071789568,0.0163562525056,0.0873770011392,0.0873766261376,0.0694359173504,48.3592557916672,-4.557285,50.8866168164608,50.787003,0.6385699715840001,0.6375910965248,0.6335792208768,-0.0731446251136,-0.0234902400128,-9.826446113356798,0.0321685220992,0.0164537459072,0.0295687470464,32.928041376051205,-0.0723725015296,-0.0243888688256,-9.8276812411264,0.0310535224192,0.0166621205888,0.0297632466944,-0.3269,-0.307585,0.810295,-0.081699,-0.017246,-9.832024,0.4354908061109316,359.4329865747055,139.43326855803517,0.0014338749952,0.0014322499968,0.0121077500032,0.3466392508672,0.00595862528,0.0018493740544,0.93797799968,0.0014338749952,0.0014322499968,0.0121077500032,2.542546,0.0,0.0,0.00591992509952,0.0,0.0,0.0037654537676799,0.0,0.0,0.0,0.2821327202426857
2023-09-08 16:04:58.360,-0.0344946666666666,-0.0475636666666666,0.015769,0.0871099999999999,0.0871099999999999,0.0692756666666666,48.35925566666667,-4.557285,50.88080566666667,50.787003,0.6354643333333334,0.6344993333333333,0.6306393333333333,-0.073118,-0.025831,-9.829175,0.026989,0.017413,0.030261,32.927795,-0.072014,-0.025836,-9.829761,0.025799,0.017696,0.030538,-0.3272588765312,-0.3060189933184,0.8113382544512,-0.0814827490773333,-0.0155898679338666,-9.833049629376,0.456590066939753,359.44875730530464,139.4580419264014,0.001435,0.001433,0.012107,0.346436,0.005893,0.002071,0.938053,0.001435,0.001433,0.012107,2.542546,0.0,0.0,0.0058966,0.0,0.0,0.0028824,0.0,0.0,0.0,0.3069060886089119
2023-09-08 16:04:58.440,-0.04122,-0.050187,0.012637,0.085686,0.085688,0.068421,48.359255,-4.557285,50.849813,50.787003,0.618901,0.61801,0.61496,-0.0710706666666666,-0.0231576666666666,-9.833683666666667,-0.0067343333333333,0.0196536666666666,0.0328283333333333,32.92834233333333,-0.070284,-0.0218233333333333,-9.833373666666668,-0.0078449999999999,0.019702,0.0329386666666666,-0.3291728765312,-0.2976669933184,0.8169022544511999,-0.080329415744,-0.0067572012672,-9.838519629376,0.4130070773234683,359.5446322430232,139.6015487554885,0.0014283333333333,0.0014269999999999,0.012105,0.345285,0.005095,0.002314,0.938481,0.001422,0.001421,0.012105,2.542546,0.0,0.0,0.0057722,0.0,0.0,-0.0018271999999999,0.0,0.0,0.0,0.4504129176960134
2023-09-08 16:04:58.465,-0.0422318724096,-0.051618246336,0.0111201288832,0.0860184991488,0.0860204991488,0.0685941245568,48.359255,-4.557285,50.8496105005184,50.787003,0.6198284976256,0.6189331226368,0.6157324980223999,-0.0704308766378666,-0.0223222521386666,-9.835092621393066,-0.0172728480213333,0.0203538732074666,0.0336306229461333,32.92851337456213,-0.069743376384,-0.0205693782101333,-9.834502622109866,-0.0183587230847999,0.0203288733952,0.0336888730794666,-0.329771,-0.295057,0.818641,-0.079969,-0.003997,-9.840229,0.399387427934771,359.5745930843603,139.64639452477277,0.0014262500053333,0.0014251250048,0.0121043750016,0.3449081259647999,0.0047325009279999,0.002104625536,0.93862162464,0.0014238749952,0.0014228749951999,0.0121043750016,2.542546,0.0,0.0,0.00573332509952,0.0,0.0,-0.00329894623232,0.0,0.0,0.0,0.4952586869802928
2023-09-08 16:04:58.480,-0.042839,-0.052477,0.01021,0.086218,0.08622,0.068698,48.359255,-4.557285,50.849489,50.787003,0.620385,0.619487,0.616196,-0.070047,-0.021821,-9.835938,-0.023596,0.020774,0.034112,32.928616,-0.069419,-0.019817,-9.83518,-0.024667,0.020705,0.034139,-0.3261983597568,-0.296384505664,0.8183331236864,-0.0803897517952,-0.005260755392,-9.837873989952,0.391215582515326,359.59256971188245,139.67330217003203,0.001425,0.001424,0.012104,0.344682,0.004515,0.001979,0.938706,0.001425,0.001424,0.012104,2.542546,0.0,0.0,0.00571,0.0,0.0,-0.004182,0.0,0.0,0.0,0.52216633223955
2023-09-08 16:04:58.505,-0.0433033738112,-0.0538844963968,0.0089718781696,0.0865517491456,0.0865531241472,0.0688704995584,48.359255,-4.557285,50.84930150048,50.787003,0.6213237475968,0.6204219976063999,0.6169747480064001,-0.0747057380736,-0.0155803909759999,-9.8353992513792,-0.0319072287232,0.0202090014464,0.0340320002048,32.9286778748416,-0.0742414876544,-0.0164551336064,-9.83569562368,-0.0328163541376,0.0200818765952,0.0340340002688,-0.320244,-0.298597,0.81782,-0.081091,-0.007367,-9.833949,0.3355313893529486,359.62175467485827,139.7219318384015,0.0014268749952,0.0014258749952,0.0121077499903999,0.3442870010112,0.0041075010432,0.0016127509375999,0.9388541246208,0.0014268749952,0.0014258749952,0.0121077499903999,2.542546,0.0,0.0,0.00556050038272,0.0,0.0,-0.0052334973081599,0.0,0.0,0.0,0.5707960006090218
2023-09-08 16:04:58.520,-0.043582,-0.054729,0.008229,0.086752,0.086753,0.068974,48.359255,-4.557285,50.849189,50.787003,0.621887,0.620983,0.617442,-0.077501,-0.011836,-9.835076,-0.036894,0.01987,0.033984,32.928715,-0.077135,-0.014438,-9.836005,-0.037706,0.019708,0.033971,-0.326247775616,-0.3006516337664,0.8168123707008,-0.081248500672,-0.0060987445888,-9.8285831021056,0.302120645372483,359.63926577218564,139.7511098386108,0.001428,0.001427,0.01211,0.34405,0.003863,0.001393,0.938943,0.001428,0.001427,0.01211,2.542546,0.0,0.0,0.0054708,0.0,0.0,-0.0058644,0.0,0.0,0.0,0.599974000818321
2023-09-08 16:04:58.545,-0.0437669995264,-0.05604149664,0.0073502522496,0.0870851241472,0.0870867491456,0.06914587456,48.359255,-4.557285,50.8489927505024,50.787003,0.622836997568,0.6219292475775999,0.618226372992,-0.076382252864,-0.0115910006272,-9.8322860071424,-0.0413139886848,0.018301254016,0.0339190001664,32.928302501056,-0.076122502592,-0.0107917593344,-9.8318381356672,-0.0418234894592,0.0181530039807999,0.0338416253312,-0.336254,-0.304076,0.815133,-0.081511,-0.003985,-9.81964,0.2370542923332291,359.66501299719124,139.79665986671534,0.0014298749952,0.0014282499967999,0.0121093750016,0.3436793759488,0.0034561260416,0.0009380011648,0.939080499648,0.0014298749952,0.0014282499967999,0.0121093750016,2.542546,0.0,0.0,0.00532130038272,0.0,0.0,-0.00691589730816,0.0,0.0,0.0,0.6455240289228641
2023-09-08 16:04:58.560,-0.043878,-0.056829,0.006823,0.087285,0.087287,0.069249,48.359255,-4.557285,50.848875,50.787003,0.623407,0.622497,0.618697,-0.075711,-0.011444,-9.830612,-0.043966,0.01736,0.03388,32.928055,-0.075515,-0.008604,-9.829338,-0.044294,0.01722,0.033764,-0.3350138697088,-0.3006398603392,0.8165497560448,-0.0800526187776,-0.001971241408,-9.820018751616,0.1980142139972125,359.68046143765554,139.82399007015147,0.001431,0.001429,0.012109,0.343457,0.003212,0.000665,0.939163,0.001431,0.001429,0.012109,2.542546,0.0,0.0,0.0052316,0.0,0.0,-0.0075467999999999,0.0,0.0,0.0,0.6728542323589863
2023-09-08 16:04:58.580,-0.0436885,-0.0570129999999999,0.007174,0.0860414999999999,0.0860435,0.0686215,48.359255,-4.557285,50.845489,50.787003,0.6221125000000001,0.6212070000000001,0.6179185,-0.0763129999999999,-0.0104915,-9.8285575,-0.045165,0.0159575,0.033584,32.927856500000004,-0.0758985,-0.008872,-9.827456,-0.0453245,0.015765,0.0334965,-0.3333603697088,-0.2960583603391999,0.8184387560448,-0.0781081187776,0.000713758592,-9.820523751616,0.1434399840110015,359.69753557995045,139.85971398867787,0.001424,0.001422,0.0121085,0.3431655,0.002909,0.0002695,0.9392705,0.001424,0.001422,0.0121085,2.542546,0.0,0.0,0.005112,0.0,0.0,-0.008388,0.0,0.0,0.0,0.708578150885387
2023-09-08 16:04:58.585,-0.0436411256064,-0.0570589994112,0.0072617488768,0.0857306289792,0.0857326289792,0.068464627008,48.359255,-4.557285,50.8446425108352,50.787003,0.6217888791424,0.620884504128,0.6177238774912001,-0.0764634980735999,-0.010253378048,-9.8280438815744,-0.0454647461632,0.015606879488,0.0335100009472,32.9278068756352,-0.0759943737728,-0.0089389991424,-9.8269855060224,-0.0455821217024,0.015401254656,0.033429625856,-0.332947,-0.294913,0.818911,-0.077622,0.001385,-9.82065,0.1297966011519847,359.7018040608869,139.86864485399292,0.0014222500224,0.0014202500224,0.0121083750016,0.3430926259328,0.0028332509696,0.0001706262656,0.939297374656,0.0014222500224,0.0014202500224,0.0121083750016,2.542546,0.0,0.0,0.0051142083050666,0.0,0.0,-0.0082761680981333,0.0,0.0,0.0,0.717509016200438
2023-09-08 16:04:58.600,-0.043499,-0.057197,0.007525,0.084798,0.0848,0.067994,48.359255,-4.557285,50.842103,50.787003,0.620818,0.619917,0.61714,-0.076915,-0.009539,-9.826503,-0.046364,0.014555,0.033288,32.927658,-0.076282,-0.00914,-9.825574,-0.046355,0.01431,0.033229,-0.3331952510592,-0.2972016347648,0.8128794742655999,-0.0735303575424,-0.0022052653183999,-9.8248042677248,0.0888657540247906,359.7146097222453,139.89543790720427,0.001417,0.001415,0.012108,0.342874,0.002606,-0.000126,0.939378,0.001417,0.001415,0.012108,2.542546,0.0,0.0,0.0051208333333333,0.0,0.0,-0.0079406666666666,0.0,0.0,0.0,0.7443020694117877
2023-09-08 16:04:58.625,-0.0426621271424,-0.0576944987264,0.0072231257728,0.0851298741504,0.0851318741504,0.0681683745536,48.359255,-4.557285,50.841862375616,50.787003,0.6217311226624,0.620826372672,0.6179062480384,-0.0755637534592,-0.0105021225343999,-9.82945611744,-0.0437771316224,0.0119437566848,0.0324236272128,32.9269761267456,-0.0749170034944,-0.0106856210432,-9.8297039894272,-0.0434843823488,0.0115137571584,0.0323483772544,-0.333609,-0.301016,0.802827,-0.066711,-0.008189,-9.831728,225.02691180734936,359.7299363040289,139.9389109686185,0.0014182499967999,0.0014168749952,0.012108,0.3425190009088,0.002296625792,-0.000582248832,0.9395079996672,0.0014182499967999,0.0014168749952,0.012108,2.542546,0.0,0.0,0.0051318749717333,0.0,0.0,-0.0073815014314666,0.0,0.0,0.0,0.7877751308260201
2023-09-08 16:04:58.640,-0.04216,-0.057993,0.007042,0.085329,0.085331,0.068273,48.359255,-4.557285,50.841718,50.787003,0.622279,0.621372,0.618366,-0.074753,-0.01108,-9.831228,-0.042225,0.010377,0.031905,32.926567,-0.074098,-0.011613,-9.832182,-0.041762,0.009836,0.03182,-0.3369832643968,-0.302054754432,0.807643895552,-0.0744364079616,-0.0075657473408,-9.8334518823552,359.99066078793936,359.73913231587693,139.96499498353316,0.001419,0.001418,0.012108,0.342306,0.002111,-0.000856,0.939586,0.001419,0.001418,0.012108,2.542546,0.0,0.0,0.0051385,0.0,0.0,-0.0070459999999999,0.0,0.0,0.0,0.813859145740679
2023-09-08 16:04:58.665,-0.0415337516032,-0.0579822307968,0.0080435358975999,0.08534823072,0.0853500864896,0.0682865095808,48.359255,-4.557285,50.8401842539264,50.787003,0.6227733256576,0.6218641622016,0.6188413353216,-0.078040491584,-0.0068537608192,-9.8274580096512,-0.0366525142656,0.007145758272,0.0311443769472,32.9264332503424,-0.0791879869696,-0.0061230140544,-9.8268951385344,-0.0359001400064,0.0067603828736,0.0310925018624,-0.342607,-0.303786,0.815672,-0.087312,-0.006527,-9.836325,359.94271150520984,359.7474759924087,140.00635526848657,0.0014208749952,0.0014198749951999,0.0121073750016,0.3419678758656,0.0018997505408,-0.0012234990592,0.9397091246848,0.0014208749952,0.0014198749951999,0.0121073750016,2.542546,0.0,0.0,0.0051495416384,0.0,0.0,-0.0064868347648,0.0,0.0,0.0,0.8552194306940919
2023-09-08 16:04:58.680,-0.041158,-0.0579757692307692,0.0086444615384615,0.0853597692307692,0.0853615384615384,0.0682946153846153,48.359255,-4.557285,50.839264,50.787003,0.6230699230769231,0.6221594615384616,0.6191265384615384,-0.080013,-0.004318,-9.825196,-0.033309,0.005207,0.030688,32.926353,-0.082242,-0.002829,-9.823723,-0.032383,0.004915,0.030656,-0.3424810744627199,-0.30390922552576,0.8158120630975999,-0.08734001261952,-0.00705121473664,-9.83437765419136,359.9139417391714,359.7524822325035,140.03117160887078,0.001422,0.001421,0.012107,0.341765,0.001773,-0.001444,0.939783,0.001422,0.001421,0.012107,2.542546,0.0,0.0,0.0051561666666666,0.0,0.0,-0.0061513333333333,0.0,0.0,0.0,0.8800357710782976
2023-09-08 16:04:59.065,-0.0315137516031999,-0.0578099231044923,0.0240681512822153,0.0856559230276923,0.0856554711049846,0.0685026634269538,48.359255,-4.557285,50.8156442539264,50.787003,0.6306825564268308,0.6297387775862153,0.6264467199369845,-0.08895751101312,-0.01340207348992,-9.7914170681152,0.0067646808383999,-0.02236765791616,0.027944875456,32.92760136229248,-0.08935872381696,-0.01447428556416,-9.79118280540928,0.0059293061311999,-0.02207445801344,0.0278551254656,-0.339249,-0.307072,0.819407,-0.088059,-0.020506,-9.784396,13.701316139750418,359.38156230914564,140.6037096172415,0.00141526250112,0.00141330000128,0.01211566249856,0.33704971328384,0.00567304935168,-0.00016483771264,0.94146833721984,0.00141526250112,0.00141330000128,0.01211566249856,2.542546,0.0,0.0,0.0053262083050666,0.0,0.0,0.0024598319018666,0.0,0.0,0.0,1.4525737794490112
2023-09-08 16:04:59.080,-0.031138,-0.0578034615384615,0.0246690769230769,0.0856674615384615,0.085666923076923,0.0685107692307692,48.359255,-4.557285,50.814724,50.787003,0.6309791538461539,0.6300340769230769,0.626731923076923,-0.089306,-0.013756,-9.790101,0.008326,-0.023442,0.027838,32.92765,-0.089636,-0.014928,-9.789915,0.007422,-0.023126,0.027746,-0.3397097519658666,-0.3066547482197333,0.8179366187264,-0.0880408749226666,-0.0209095017216,-9.781840114094932,0.2124527504345092,359.3671108194985,140.62601639177558,0.001415,0.001413,0.012116,0.336866,0.005825,-0.000115,0.941534,0.001415,0.001413,0.012116,2.542546,0.0,0.0,0.0053328333333333,0.0,0.0,0.0027953333333333,0.0,0.0,0.0,1.4748805539830985
2023-09-08 16:04:59.160,-0.029134,-0.057769,0.027874,0.085729,0.085728,0.068554,48.359255,-4.557285,50.809816,50.787003,0.632561,0.631609,0.628253,-0.0835913333333333,-0.014912,-9.774952333333331,-0.0093199999999999,-0.01593,0.0287886666666666,32.92834933333334,-0.08442,-0.0159419999999999,-9.775564333333334,-0.0101006666666666,-0.0156439999999999,0.0287306666666666,-0.3421670852992,-0.3044294148864,0.8100946187264,-0.087944208256,-0.0230615017216,-9.7682087807616,0.1752677895305188,359.28769886909333,140.7513222615707,0.00142,0.001419,0.012121,0.335836,0.006369,-0.000647,0.941899,0.00142,0.001419,0.012121,2.542546,0.0,0.0,0.0053681666666666,0.0,0.0,0.0045846666666666,0.0,0.0,0.0,1.6001864237782115
2023-09-08 16:04:59.180,-0.0289605,-0.0571995,0.029476,0.0844535,0.0844525,0.0678945,48.359255,-4.557285,50.802691,50.7875025,0.6311645,0.6302175,0.6273664999999999,-0.0821626666666666,-0.015201,-9.771165166666668,-0.0137314999999999,-0.014052,0.0290263333333333,32.92852416666667,-0.083116,-0.0161954999999999,-9.771976666666667,-0.0144813333333333,-0.0137735,0.0289768333333333,-0.3427814186325333,-0.3038730815530667,0.8081341187264001,-0.0879200415893333,-0.0235995017216,-9.764800947428268,0.1516619283711288,359.27517974126977,140.78237657406677,0.001413,0.001412,0.0121205,0.3355815,0.006403,-0.000876,0.941989,0.001413,0.001412,0.0121205,2.542546,0.0,0.0,0.005377,0.0,0.0,0.005032,0.0,0.0,0.0,1.6312407362742931
2023-09-08 16:04:59.185,-0.0289171255552,-0.0570571268224,0.0298764948736,0.0841346290816,0.0841336290816,0.0677296271104,48.359255,-4.557285,50.8009097728,50.7876273734016,0.6308153794688001,0.6298696294528,0.6271448778368,-0.0818055045717333,-0.0152732490752,-9.770218387118934,-0.0148343608831999,-0.0135825060096,0.0290857492394666,32.92856787444053,-0.0827900041728,-0.0162588741888,-9.771079761480534,-0.0155764859818666,-0.0133058809856,0.0290383742122666,-0.342935,-0.303734,0.807644,-0.087914,-0.023734,-9.763949,0.145760538620037,359.27204999937504,140.79014005281698,0.0014112500224,0.0014102500223999,0.0121203750016,0.3355178758144,0.0064114998912,-0.0009332492672,0.942011499712,0.0014112500224,0.0014102500223999,0.0121203750016,2.542546,0.0,0.0,0.0053729167189333,0.0,0.0,0.0049717507712,0.0,0.0,0.0,1.6390042150244994
2023-09-08 16:04:59.200,-0.028787,-0.05663,0.031078,0.083178,0.083177,0.067235,48.359255,-4.557285,50.795566,50.788002,0.629768,0.628826,0.62648,-0.080734,-0.01549,-9.767378,-0.018143,-0.012174,0.029264,32.928699,-0.081812,-0.016449,-9.768389,-0.018862,-0.011903,0.029223,-0.3367954738048,-0.3040347512832,0.811654642112,-0.0863382432768,-0.0211787390976,-9.7670003880192,0.1280560672117389,359.26266061344614,140.81343088656286,0.001406,0.001405,0.01212,0.335327,0.006437,-0.001105,0.942079,0.001406,0.001405,0.01212,2.542546,0.0,0.0,0.0053606666666666,0.0,0.0,0.004791,0.0,0.0,0.0,1.6622950487703747
2023-09-08 16:04:59.225,-0.0295063731584,-0.0561587512064,0.0310361251072,0.0835067491584,0.0835057491584,0.0674106245504,48.359255,-4.557285,50.7949735015168,50.788002,0.6306579977216,0.6297122477312,0.6272374980608,-0.0811939988224,-0.0175418697472,-9.768134248064,-0.0213873666944,-0.0092415075072,0.0294989993984,32.9292808735104,-0.082036999424,-0.0165308747904,-9.7681715005568,-0.0217382426368,-0.0088736327551999,0.029510499264,-0.326563,-0.304536,0.818339,-0.083712,-0.01692,-9.772086,0.0925685846240115,359.253743980586,140.85346621000693,0.0014078749952,0.0014068749952,0.0121193750016,0.3350001258368,0.0064070000768,-0.001420624192,0.9421952497024,0.0014078749952,0.0014068749952,0.0121193750016,2.542546,0.0,0.0,0.0053402500522666,0.0,0.0,0.0044897507712,0.0,0.0,0.0,1.7023303722144476
2023-09-08 16:04:59.240,-0.029938,-0.055876,0.031011,0.083704,0.083703,0.067516,48.359255,-4.557285,50.794618,50.788002,0.631192,0.630244,0.627692,-0.08147,-0.018773,-9.768588,-0.023334,-0.007482,0.02964,32.92963,-0.082172,-0.01658,-9.768041,-0.023464,-0.007056,0.029683,-0.3302661408,-0.3020204892672,0.8156401134848,-0.0825498700416,-0.0168933748864,-9.7679339822848,0.0712759497142744,359.2483939643474,140.87748756805848,0.001409,0.001408,0.012119,0.334804,0.006389,-0.00161,0.942265,0.001409,0.001408,0.012119,2.542546,0.0,0.0,0.005328,0.0,0.0,0.004309,0.0,0.0,0.0,1.7263517302660034
2023-09-08 16:04:59.265,-0.0308638726297599,-0.054685378048,0.03092362522368,0.0835802503168,0.08357962531584,0.0674328752128,48.35925487500032,-4.557285,50.78903038930432,50.78787712531968,0.6291863801344,0.62824725511168,0.62569238011904,-0.0796943795456,-0.015344883776,-9.765813007104,-0.0243821223168,-0.0041938834176,0.0295893751296,32.9298543744256,-0.079550131712,-0.0148562544128,-9.765675381056,-0.024435872512,-0.0038003833343999,0.0296792500096,-0.336438,-0.297828,0.811142,-0.080613,-0.016849,-9.761014,0.0335324515836339,359.246997383297,140.91637697884588,0.0014108749952,0.0014092499968,0.0121183750016,0.3344732508467199,0.0062371253888,-0.0017712495872,0.9423824996992,0.00140850000128,0.0014075000012799,0.01211937499904,2.542546,0.0,0.0,0.0053075833856,0.0,0.0,0.0040077507712,0.0,0.0,0.0,1.7652411410533944
2023-09-08 16:04:59.280,-0.0314194,-0.053971,0.0308712,0.083506,0.0835056,0.067383,48.3592548,-4.557285,50.7856778,50.7878022,0.627983,0.6270492,0.6244926000000001,-0.078629,-0.013288,-9.764148,-0.025011,-0.002221,0.029559,32.929989,-0.077977,-0.013822,-9.764256,-0.025019,-0.001847,0.029677,-0.337308941216,-0.2992491623136,0.8115893769088001,-0.0797578088512,-0.0165689675552,-9.7647379533888,0.0108861981074856,359.2461594289464,140.93971078460973,0.001412,0.00141,0.012118,0.3342748,0.0061459999999999,-0.001868,0.942453,0.0014082,0.0014072,0.0121196,2.542546,0.0,0.0,0.0052953333333333,0.0,0.0,0.003827,0.0,0.0,0.0,1.7885749468172492
2023-09-08 16:04:59.425,-0.03678947262976,-0.047065378048,0.03036442522368,0.0827882503168,0.08279002531584,0.0669008752128,48.35925407500032,-4.557285,50.75326958930432,50.78707792531968,0.6163503801344,0.61546805511168,0.61289478011904,-0.0730501274624,-0.0077888774271999,-9.79996370919168,-0.0009750856089599,0.00992926963712,0.03005707478016,32.93011369994496,-0.07312530214144,-0.0078451026380799,-9.79970268435456,-0.00046398583808,0.0100864947328,0.02995467487744,-0.345728,-0.312987,0.815914,-0.071491,-0.013862,-9.800736,326.1452626054692,359.32248811652653,141.1759143218901,0.0014056562528,0.0014045625024,0.0121216249984,0.33235645084672,0.0052651253888,-0.0028032495872,0.9431344996992,0.00140530000128,0.00140430000128,0.01212177499904,2.542546,0.0,0.0,0.0051769167189333,0.0,0.0,0.0020797507712,0.0,0.0,0.0,2.024778484097624
2023-09-08 16:04:59.440,-0.037345,-0.046351,0.030312,0.082714,0.082716,0.066851,48.359254,-4.557285,50.749917,50.787003,0.615147,0.61427,0.611695,-0.072473,-0.0072199999999999,-9.8036688,0.0015114,0.0111862,0.0301086,32.9301266,-0.0726234,-0.0072267999999999,-9.8033696,0.0020761999999999,0.011321,0.0299834,-0.3396739741696,-0.3074422263424,0.8184388857728,-0.0721138776576,-0.0159421338752,-9.8109431685504,359.8834603844704,359.3303842248306,141.20034928561472,0.001405,0.001404,0.012122,0.332158,0.005174,-0.0029,0.943205,0.001405,0.001404,0.012122,2.542546,0.0,0.0,0.0051646666666666,0.0,0.0,0.001899,0.0,0.0,0.0,2.04921344782224
2023-09-08 16:04:59.465,-0.0374843746432,-0.0453178776448,0.0291920028672,0.0830433741567999,0.0830453741568,0.0670272495488,48.359254,-4.557285,50.7492913766016,50.787003,0.6160119977856,0.6151312477952,0.6124318731136,-0.0715111274624,-0.0062718774272,-9.80984390919168,0.00565551439104,0.0132810696371199,0.0301944747801599,32.93014809994496,-0.07178690214144,-0.0061963026380799,-9.80948108435456,0.0063098141619199,0.0133784947327999,0.03003127487744,-0.329584,-0.298201,0.822647,-0.073152,-0.019409,-9.827955,359.8942749351682,359.3526937118661,141.2403846090588,0.0014068749952,0.0014058749952,0.0121213750016,0.3318280008447999,0.0050227503872,-0.0027443753984,0.9433224996992,0.0014068749952,0.0014058749952,0.0121213750016,2.542546,0.0,0.0,0.0051442500522666,0.0,0.0,0.0015977507712,0.0,0.0,0.0,2.0892487712663126
2023-09-08 16:04:59.480,-0.037568,-0.044698,0.02852,0.083241,0.083243,0.067133,48.359254,-4.557285,50.748916,50.787003,0.616531,0.615648,0.612874,-0.070934,-0.005703,-9.813549,0.008142,0.014538,0.030246,32.930161,-0.071285,-0.005578,-9.813148,0.00885,0.014613,0.03006,-0.332344011776,-0.2980288742656,0.8138160873216,-0.0729431241088,-0.0074854491264,-9.832321893632,359.90076370988334,359.36607949546726,141.26440596711035,0.001408,0.001407,0.012121,0.33163,0.004932,-0.002651,0.943393,0.001408,0.001407,0.012121,2.542546,0.0,0.0,0.005132,0.0,0.0,0.001417,0.0,0.0,0.0,2.1132701293178684
2023-09-08 16:04:59.505,-0.0376454998016,-0.0439486269184,0.02714500352,0.0835709991552,0.0835729991552,0.0673092495488,48.359254,-4.557285,50.748300376576005,50.787003,0.6174066227584001,0.616519872768,0.613617748096,-0.0736096181504,-0.0049705018752,-9.8229327259776,0.0135526111488,0.014928624,0.0299641257216,32.9304947491456,-0.0730493704832,-0.004681127296,-9.823588598272,0.0142449861888,0.014966124096,0.0299275003392,-0.336944,-0.297742,0.799098,-0.072595,0.012387,-9.8396,359.9240042509524,359.38917679745424,141.30687635494996,0.0014098749951999,0.0014088749952,0.0121253749888,0.3312793758976,0.004810125312,-0.002391625664,0.9435173746816,0.0014098749951999,0.0014088749952,0.0121253749888,2.542546,0.0,0.0,0.00508687511552,0.0,0.0,0.00052662727936,0.0,0.0,0.0,2.155740517157483
2023-09-08 16:04:59.520,-0.037692,-0.043499,0.02632,0.083769,0.083771,0.067415,48.359254,-4.557285,50.747931,50.787003,0.617932,0.617043,0.614064,-0.075215,-0.004531,-9.828563,0.016799,0.015163,0.029795,32.930695,-0.074108,-0.004143,-9.829853,0.017482,0.015178,0.029848,-0.3342436134784,-0.2990698806656,0.8064191562368,-0.0737466299136,0.0101696155392,-9.8419940102144,359.9379486707873,359.4030352732532,141.33235876161288,0.001411,0.00141,0.012128,0.331069,0.004737,-0.002236,0.943592,0.001411,0.00141,0.012128,2.542546,0.0,0.0,0.0050598,0.0,0.0,-7.599999999999751e-06,0.0,0.0,0.0,2.1812229238204
2023-09-08 16:04:59.545,-0.0375730940544,-0.0434197814528,0.0255017208448,0.0836411878272,0.0836430315776,0.0673507814144,48.359254,-4.557285,50.7462230356224,50.7871590933504,0.6182054368000001,0.6173151868032,0.6143764992,-0.0730050056576,-0.0034197528447999,-9.8341961105792,0.0218233621376,0.014903625664,0.0293662510976,32.9304256256896,-0.0732398772224,-0.0033298770816,-9.835781109824,0.022322612608,0.0148711257856,0.0293530012672,-0.329743,-0.301283,0.818621,-0.075666,0.006474,-9.845984,359.97232605048885,359.4253805700592,141.3712481724002,0.0014128749951999,0.0014112499968,0.0121273750016,0.3307483758208,0.004652625216,-0.0018866258944,0.9437057497088,0.0014128749951999,0.0014112499968,0.0121273750016,2.542546,0.0,0.0,0.00501467511552,0.0,0.0,-0.0008979727206399,0.0,0.0,0.0,2.2201123346077054
2023-09-08 16:04:59.560,-0.03750175,-0.04337225,0.0250107499999999,0.0835645,0.08356625,0.06731225,48.359254,-4.557285,50.74519825,50.78725275,0.6183695,0.6174785,0.614564,-0.071679,-0.002753,-9.837576,0.024838,0.014748,0.029109,32.930264,-0.072719,-0.002842,-9.839338,0.025227,0.014687,0.029056,-0.3321832604117333,-0.3019427528149333,0.8173152444288,-0.0771400062890666,0.0027447340885333,-9.844765494801068,359.9929526191199,359.4387878396694,141.39458197816407,0.001414,0.001412,0.012127,0.330556,0.004602,-0.001677,0.943774,0.001414,0.001412,0.012127,2.542546,0.0,0.0,0.0049876,0.0,0.0,-0.0014321999999999,0.0,0.0,0.0,2.2434461403715886
2023-09-08 16:04:59.665,-0.0370023440544,-0.0430395314528,0.0215739708448,0.0830276878271999,0.0830287815775999,0.0670425314143999,48.359254,-4.557285,50.7380247856224,50.7879083433504,0.6195179368,0.6186216868032001,0.6158764992,-0.0766028407488,-0.011740338272,-9.8352213764352,0.0289782787264,0.0104784401024,0.026972907552,32.9293701880448,-0.0766309038656,-0.0110969637184,-9.8359438770688,0.0290122476928,0.0103505026432,0.0268168763648,-0.349265,-0.306561,0.808175,-0.087458,-0.02336,-9.836236,45.18340230099892,359.5168962634816,141.5488436085044,0.0014070000042666,0.0014058750037333,0.0121261250005333,0.3292785007786666,0.0045066250581333,0.0001211239039999,0.9442219997269332,0.0014070000042666,0.0014058750037333,0.0121261250005333,2.542546,0.0,0.0,0.00479807511552,0.0,0.0,-0.00517177272064,0.0,0.0,0.0,2.397707770711918
2023-09-08 16:04:59.680,-0.036931,-0.042992,0.021083,0.082951,0.082952,0.067004,48.359254,-4.557285,50.737,50.788002,0.619682,0.618785,0.616064,-0.07730625,-0.01302425,-9.834885,0.02956975,0.0098684999999999,0.0266677499999999,32.9292425,-0.07718975,-0.0122762499999999,-9.835459,0.029553,0.009731,0.026497,-0.3444601044992,-0.3021187310463999,0.8092913797632,-0.0837874843392,-0.0193204827648,-9.8350652450048,0.2103901023720382,359.5280546641507,141.57088109172582,0.001406,0.001405,0.012126,0.329096,0.004493,0.000378,0.944286,0.001406,0.001405,0.012126,2.542546,0.0,0.0,0.004771,0.0,0.0,-0.005706,0.0,0.0,0.0,2.4197452539333426
2023-09-08 16:04:59.705,-0.0369766248832,-0.0434563738112,0.0206555010944,0.0832816241535999,0.0832826241536,0.0671802495488,48.359254,-4.557285,50.736444376422405,50.788002,0.6205544977664,0.619653747776,0.6168071230976,-0.0784785907488,-0.015164088272,-9.8343243764352,0.0305555287264,0.0088519401024,0.0261591575519999,32.9290296880448,-0.0781211538656,-0.0142417137183999,-9.8346508770688,0.0304542476928,0.0086985026431999,0.0259638763648,-0.336452,-0.294715,0.811152,-0.07767,-0.012588,-9.833114,0.2531469683758187,359.54073132291563,141.60744286742923,0.0014078749952,0.0014068749952,0.0121297499904,0.3287935007744,0.0045111249536,0.000768624,0.9443909997312,0.0014078749952,0.0014068749952,0.0121297499904,2.542546,0.0,0.0,0.00465125030656,0.0,0.0,-0.00611499895296,0.0,0.0,0.0,2.456307029636747
2023-09-08 16:04:59.720,-0.037004,-0.043735,0.020399,0.08348,0.083481,0.067286,48.359254,-4.557285,50.736111,50.788002,0.621078,0.620175,0.617253,-0.079182,-0.016448,-9.833988,0.031147,0.008242,0.025854,32.928902,-0.07868,-0.015421,-9.834166,0.030995,0.008079,0.025644,-0.3400876405119999,-0.2945417492608,0.8099497448704001,-0.0782152523264,-0.0161118900352,-9.8242575872128,0.2788012631106585,359.54833737009835,141.6293800826087,0.001409,0.001408,0.012132,0.328612,0.004522,0.001003,0.944454,0.001409,0.001408,0.012132,2.542546,0.0,0.0,0.0045794,0.0,0.0,-0.0063604,0.0,0.0,0.0,2.47824424481621
2023-09-08 16:04:59.745,-0.0371402496512,-0.0445212479872,0.0204546248576,0.083811249152,0.083812249152,0.0674622495488,48.359254,-4.557285,50.7355591264128,50.788002,0.6219611227392,0.6210543727488,0.6180017480832,-0.079085125248,-0.0151842532352,-9.826247394816,0.0280207580032,0.0073682522368,0.0260308745472,32.9281245019904,-0.0797524972543999,-0.0149310012544,-9.8253022726912,0.0274881339776,0.0073202519424,0.0259639991807999,-0.346147,-0.294253,0.807946,-0.079124,-0.021985,-9.809497,0.3135367405174148,359.5592593501077,141.6645452772617,0.0014108749952,0.0014098749951999,0.012132,0.3283207507456,0.004531374976,0.001321749184,0.9445546247424,0.0014108749952,0.0014098749951999,0.012132,2.542546,0.0,0.0,0.0044596503065599,0.0,0.0,-0.00676939895296,0.0,0.0,0.0,2.5134094394692283
2023-09-08 16:04:59.760,-0.037222,-0.044993,0.020488,0.08401,0.084011,0.067568,48.359254,-4.557285,50.735228,50.788002,0.622491,0.621582,0.618451,-0.079027,-0.014426,-9.821603,0.026145,0.006844,0.026137,32.927658,-0.080396,-0.014637,-9.819984,0.025384,0.006865,0.026156,-0.343720739648,-0.2897038555903999,0.8092652556288,-0.081113383488,-0.0209334955136,-9.810670755008,0.3343781692383484,359.56581258284984,141.68564453809054,0.001412,0.001411,0.012132,0.328146,0.004537,0.001513,0.944615,0.001412,0.001411,0.012132,2.542546,0.0,0.0,0.0043878,0.0,0.0,-0.0070148,0.0,0.0,0.0,2.534508700298062
2023-09-08 16:04:59.780,-0.036486,-0.0450855,0.021483,0.0828735,0.0828745,0.06697,48.359254,-4.557285,50.7315705,50.788002,0.621355,0.6204495,0.617721,-0.080402,-0.0166225,-9.817284,0.0221695,0.006367,0.0258844999999999,32.9275035,-0.080152,-0.0177885,-9.8164215,0.0214094999999999,0.0063815,0.0259095,-0.340485739648,-0.2836383555903999,0.8110242556288,-0.083765883488,-0.0195314955136,-9.812235755008,0.3525122834542389,359.5735475130841,141.71228707556412,0.0014055,0.0014045,0.0121315,0.327926,0.0045245,0.0016855,0.944691,0.0014055,0.0014045,0.0121315,2.542546,0.0,0.0,0.004292,0.0,0.0,-0.007342,0.0,0.0,0.0,2.5611512377716394
2023-09-08 16:04:59.785,-0.0363020023551999,-0.045108624704,0.021731746816,0.0825893786368,0.0825903786368,0.0668205019136,48.359254,-4.557285,50.730656136704,50.788002,0.6210710036352,0.620166378624,0.6175385023359999,-0.0807457456,-0.0171716179712,-9.8162042638208,0.0211756377216,0.0062477515264,0.025821375808,32.9274648754944,-0.0800910007808,-0.0185763649152,-9.8155308864,0.0204158877184,0.0062606265472,0.0258478757887999,-0.339677,-0.282122,0.811464,-0.084429,-0.019181,-9.812627,0.3570457539790461,359.57548122089094,141.7189476246764,0.0014038750208,0.0014028750208,0.0121313750016,0.327871000704,0.00452137504,0.001728624448,0.9447099997568,0.0014038750208,0.0014028750208,0.0121313750016,2.542546,0.0,0.0,0.0042657836689066,0.0,0.0,-0.0072795174664533,0.0,0.0,0.0,2.567811786883908
2023-09-08 16:04:59.800,-0.03575,-0.045178,0.022478,0.081737,0.081738,0.066372,48.359254,-4.557285,50.727913,50.788002,0.620219,0.619317,0.616991,-0.081777,-0.018819,-9.812965,0.018194,0.00589,0.025632,32.927349,-0.079908,-0.02094,-9.812859,0.017435,0.005898,0.025663,-0.3397947505024,-0.2844342598656,0.8084448621183999,-0.0844023748864,-0.0167123644672,-9.8080133553152,0.3706463976701295,359.5812824433184,141.7389296130377,0.001399,0.001398,0.012131,0.327706,0.004512,0.001858,0.944767,0.001399,0.001398,0.012131,2.542546,0.0,0.0,0.0041871333333333,0.0,0.0,-0.0070920666666666,0.0,0.0,0.0,2.587793775245217
2023-09-08 16:04:59.825,-0.0360918741248,-0.046456121728,0.0228829989632,0.0820669991552,0.0820679991552,0.066550124544,48.359254,-4.557285,50.7273492514432,50.788002,0.6210689978239999,0.6201644978304001,0.6177222481279999,-0.0817888749696,-0.015359633856,-9.8075600138368,0.0121296405248,0.0054975010048,0.0259463741952,32.927389624896,-0.0803617488384,-0.0159075128832,-9.806996515008,0.0115250151296,0.0054505011456,0.026134873792,-0.339991,-0.288288,0.803413,-0.084358,-0.012598,-9.800324,0.3804582747932751,359.5897335491617,141.77463195424855,0.0014008749952,0.0013998749951999,0.0121303750016,0.3274116257536,0.0044695001088,0.0019648747264,0.9448688747392,0.0014008749952,0.0013998749951999,0.0121303750016,2.542546,0.0,0.0,0.0040560503355733,0.0,0.0,-0.0067796507997866,0.0,0.0,0.0,2.6234961164560677
2023-09-08 16:04:59.840,-0.036297,-0.047223,0.023126,0.082265,0.082266,0.066657,48.359254,-4.557285,50.727011,50.788002,0.621579,0.620673,0.618161,-0.081796,-0.013284,-9.804317,0.008491,0.005262,0.026135,32.927414,-0.080634,-0.012888,-9.803479,0.007979,0.005182,0.026418,-0.3398143742464,-0.2848196102015999,0.8079418943232001,-0.0815863631744,-0.0145603833727999,-9.79607710688,0.3863454412567141,359.5948042472835,141.79605350521223,0.001402,0.001401,0.01213,0.327235,0.004444,0.002029,0.94493,0.001402,0.001401,0.01213,2.542546,0.0,0.0,0.0039774,0.0,0.0,-0.0065921999999999,0.0,0.0,0.0,2.6449176674197474
2023-09-08 16:04:59.865,-0.0361404379008,-0.0480270604416,0.0235887071488,0.082307708224,0.0823086040576,0.0666822082687999,48.359254,-4.5572851041664,50.725816732224,50.7878979377664,0.6220662904192,0.6211581029248,0.6186273529727999,-0.0772078867455999,-0.0169171156992,-9.8018907562112,0.0021841411455999,0.0047270013696,0.0265143740287999,32.926860876416,-0.0769033845504,-0.01630986624,-9.801204005824,0.0014083918208,0.0046676263168,0.0265923745535999,-0.33952,-0.279039,0.81549,-0.076967,-0.017831,-9.788999,0.3811172147604394,359.6020736306995,141.83154098779994,0.0014038749952,0.0014028749952,0.0121293750016,0.3269431257472,0.004369000192,0.0020077500543999,0.9450318747392,0.0014038749952,0.0014028749952,0.0121293750016,2.542546,0.0,0.0,0.00384631700224,0.0,0.0,-0.0062797841331199,0.0,0.0,0.0,2.6804051500074597
2023-09-08 16:04:59.880,-0.0360465,-0.0485095,0.0238663333333333,0.0823333333333333,0.0823341666666666,0.0666973333333333,48.359254,-4.5572851666666665,50.72510016666666,50.7878355,0.6223586666666666,0.6214491666666667,0.6189071666666667,-0.074455,-0.019097,-9.800435,-0.0016,0.004406,0.026742,32.926529,-0.074665,-0.018363,-9.799839,-0.002534,0.004359,0.026697,-0.3399353767722666,-0.2794069390698666,0.8150207479978667,-0.0775698150719999,-0.0171583721301333,-9.790009941813334,0.3779802574478041,359.60643529052464,141.85283362270968,0.001405,0.001404,0.012129,0.326768,0.004324,0.001995,0.945093,0.001405,0.001404,0.012129,2.542546,0.0,0.0,0.0037676666666666,0.0,0.0,-0.0060923333333333,0.0,0.0,0.0,2.701697784917201
2023-09-08 16:05:00.080,-0.034794,-0.054942,0.027568,0.082675,0.082675,0.066899,48.359254,-4.557286,50.715546,50.787003,0.626257,0.62533,0.622638,-0.0815983333333333,-0.0154078333333333,-9.8000975,-0.0280041666666666,-0.0015323333333333,0.030227,32.9298665,-0.0810341666666666,-0.0164921666666666,-9.800585666666668,-0.0278598333333333,-0.0016701666666666,0.0303803333333333,-0.3454737101055999,-0.2843127724032,0.8087640813312,-0.0856073150719999,-0.0081900387968,-9.80348910848,0.0635410194800082,359.6396095468627,142.17242948083367,0.001404,0.001403,0.012131,0.324142,0.003155,-0.000495,0.946003,0.001404,0.001403,0.012131,2.542546,0.0,0.0,0.002719,0.0,0.0,-0.003593,0.0,0.0,0.0,3.02129364304119
2023-09-08 16:05:00.105,-0.034131501696,-0.0553801238783999,0.0278542492672,0.0830043741568,0.0830043741568,0.0670752495488,48.359254,-4.557286,50.7148153768704,50.787003,0.6271269977728,0.6261968727808,0.6233823730944,-0.0824912477141333,-0.0149466886805333,-9.800055312608,-0.0313046790506666,-0.0022746230997333,0.0306626238848,32.930283686432,-0.0818303104618666,-0.0162583130986666,-9.800678999761066,-0.0310255543957333,-0.0024238105706666,0.0308407488213333,-0.346166,-0.284926,0.807982,-0.086612,-0.007069,-9.805174,225.0141563022579,359.6367447652209,142.21676197674043,0.0014058749952,0.0014048749951999,0.0121353749888,0.3237770009344,0.0030406252928,-0.000904373952,0.94612799968,0.0014058749952,0.0014048749951999,0.0121353749888,2.542546,0.0,0.0,0.0027102500224,0.0,0.0,-0.00319275102464,0.0,0.0,0.0,3.065626138947948
2023-09-08 16:05:00.120,-0.033734,-0.055643,0.028026,0.083202,0.083202,0.067181,48.359254,-4.557286,50.714377,50.787003,0.627649,0.626717,0.623829,-0.083027,-0.01467,-9.80003,-0.033285,-0.00272,0.030924,32.930534,-0.082308,-0.016118,-9.800735,-0.032925,-0.002876,0.031117,-0.3449768699264,-0.2849792502272,0.8078807495679999,-0.0850467433215999,-0.0029083572479999,-9.8105211478144,359.98544687200365,359.63502588450166,142.24336165587087,0.001407,0.001406,0.012138,0.323558,0.002972,-0.00115,0.946203,0.001407,0.001406,0.012138,2.542546,0.0,0.0,0.002705,0.0,0.0,-0.0029525999999999,0.0,0.0,0.0,3.09222581807839
2023-09-08 16:05:00.145,-0.0331083766016,-0.0558886243712,0.028163499648,0.0835319991552,0.0835319991552,0.0673572495488,48.359254,-4.557286,50.7136045019776,50.787003,0.6285296227456,0.6275938727552,0.62457899808,-0.0805838812544,-0.0078281425152,-9.8049274874624,-0.030319382592,-0.0044062456832,0.031086499584,32.9304415002368,-0.0795617570304,-0.0076023968,-9.8062062359936,-0.0299356326528,-0.0047191202816,0.0311407499391999,-0.342995,-0.285068,0.807712,-0.082438,0.004026,-9.819433,359.9435136307219,359.62800716947925,142.28482937013584,0.0014088749952,0.0014078749952,0.0121373750016,0.3232167508736,0.0029126251519999,-0.0015156240639999,0.9463192497024,0.0014088749952,0.0014078749952,0.0121373750016,2.542546,0.0,0.0,0.0026962500224,0.0,0.0,-0.0025523510246399,0.0,0.0,0.0,3.133693532343358
2023-09-08 16:05:00.160,-0.032733,-0.056036,0.028246,0.08373,0.08373,0.067463,48.359254,-4.557286,50.713141,50.787003,0.629058,0.62812,0.625029,-0.079118,-0.003723,-9.807866,-0.02854,-0.005418,0.031184,32.930386,-0.077914,-0.002493,-9.809489,-0.028142,-0.005825,0.031155,-0.3440453794815999,-0.2885363897984,0.8108121382272,-0.0849310106368,-0.0010837718015999,-9.8157699843712,359.9183535141939,359.6237959117171,142.309710168547,0.00141,0.001409,0.012137,0.323012,0.002877,-0.001735,0.946389,0.00141,0.001409,0.012137,2.542546,0.0,0.0,0.002691,0.0,0.0,-0.0023121999999999,0.0,0.0,0.0,3.158574330754533
2023-09-08 16:05:00.180,-0.0320845,-0.055821,0.029084,0.082654,0.082654,0.0668945,48.359254,-4.557286,50.7094175,50.7875025,0.6279745,0.6270405,0.6243289999999999,-0.080869,-0.005591,-9.8111285,-0.024728,-0.0069565,0.03089,32.930505999999994,-0.080744,-0.0049695,-9.8112915,-0.0242945,-0.007153,0.0308275,-0.3454458794816,-0.2931608897984,0.8149456382272,-0.0882550106368,-0.0078967718015999,-9.8108859843712,359.8935730895545,359.61505830534134,142.34302766433387,0.0014039999999999,0.001403,0.0121365,0.3227375,0.00288,-0.0019635,0.946482,0.0014039999999999,0.001403,0.0121365,2.542546,0.0,0.0,0.002684,0.0,0.0,-0.001992,0.0,0.0,0.0,3.1918918265413936
2023-09-08 16:05:00.185,-0.0319223770752,-0.055767250688,0.0292934973184,0.0823850034432,0.0823850034432,0.0667523768192,48.359254,-4.557286,50.7084866369152,50.7876273734016,0.6277036284672,0.6267706284544,0.62415400224,-0.0813067443968,-0.0060579940224,-9.81194411456,-0.0237750121984,-0.0073411200768,0.0308165009408,32.930535999616,-0.0814514909439999,-0.0055886170752,-9.811742119232,-0.023332637312,-0.0074849957504,0.0307456260479999,-0.345796,-0.294317,0.815979,-0.089086,-0.0096,-9.809665,359.88737806269194,359.6128739317077,142.3513569316646,0.0014025000192,0.0014015000192,0.0121363750016,0.3226688758784,0.0028807499904,-0.0020206242688,0.9465052497024,0.0014025000192,0.0014015000192,0.0121363750016,2.542546,0.0,0.0,0.0026970331665066,0.0,0.0,-0.00190220114944,0.0,0.0,0.0,3.2002210938721305
2023-09-08 16:05:00.200,-0.031436,-0.055606,0.029922,0.081578,0.081578,0.066326,48.359254,-4.557286,50.705694,50.788002,0.626891,0.625961,0.623629,-0.08262,-0.007459,-9.814391,-0.020916,-0.008495,0.030596,32.930626,-0.083574,-0.007446,-9.813094,-0.020447,-0.008481,0.0305,-0.3458601252736,-0.294305749952,0.8144733685760001,-0.0882414963968,-0.0139215184384,-9.81015250208,359.868792664915,359.6063206989656,142.37634516012074,0.001398,0.001397,0.012136,0.322463,0.002883,-0.002192,0.946575,0.001398,0.001397,0.012136,2.542546,0.0,0.0,0.0027361333333333,0.0,0.0,-0.0016327999999999,0.0,0.0,0.0,3.2252093223282543
2023-09-08 16:05:00.225,-0.0304685024768,-0.0553803755776,0.030321998976,0.0819067491584,0.0819067491584,0.066504124544,48.359254,-4.557286,50.7048696271104,50.788002,0.627740997824,0.6268072478336,0.6243627481216,-0.0829156242432,-0.006877751488,-9.8137760015744,-0.0153885141504,-0.0101393707904,0.0303903755264,32.9302253760256,-0.0832940007168,-0.0067872516864,-9.8138308731136,-0.0146801397632,-0.0103459952256,0.0303768753152,-0.345967,-0.294287,0.811964,-0.086834,-0.021124,-9.810965,359.8510668285064,359.5912805953462,142.41688182035213,0.0013998749951999,0.0013982499968,0.0121353750016,0.3221280008576,0.002957999808,-0.00237949952,0.9466881247104,0.0013998749951999,0.0013982499968,0.0121353750016,2.542546,0.0,0.0,0.0028012998331733,0.0,0.0,-0.0011838011494399,0.0,0.0,0.0,3.2657459825596504
2023-09-08 16:05:00.240,-0.029888,-0.055245,0.030562,0.082104,0.082104,0.066611,48.359254,-4.557286,50.704375,50.788002,0.628251,0.627315,0.624803,-0.083093,-0.006529,-9.813407,-0.012072,-0.011126,0.030267,32.929985,-0.083126,-0.006392,-9.814273,-0.01122,-0.011465,0.030303,-0.3470293795328,-0.2942554998656,0.81507651328,-0.104820951744,-0.0066661883135999,-9.8297390801024,359.84043125405606,359.58225647157013,142.44120398252954,0.001401,0.001399,0.012135,0.321927,0.003003,-0.002492,0.946756,0.001401,0.001399,0.012135,2.542546,0.0,0.0,0.0028404,0.0,0.0,-0.0009143999999999,0.0,0.0,0.0,3.290068144737063
2023-09-08 16:05:00.265,-0.0305392483328,-0.054720522176,0.0312267899647999,0.0821136874752,0.0821137916416,0.0666019375232,48.359254,-4.557286,50.700327093696,50.788002,0.6268597535616,0.6259298993792,0.6233750869888,-0.0840404975744,0.0015972291967999,-9.814738246592,-0.0028732735488,-0.0130609950464,0.0303432498048,32.929603750976,-0.0869372402432,-0.0131851076095999,-9.819660486208,-0.003295020288,-0.013436869952,0.0303104999808,-0.3488,-0.294203,0.820264,-0.134799,0.01743,-9.861029,359.84086097130233,359.5627043368649,142.48177645253148,0.0014028749952,0.0014008749952,0.0121343750016,0.3215920008576,0.0031667495808,-0.002541999872,0.9468691247104,0.0014028749952,0.0014008749952,0.0121343750016,2.542546,0.0,0.0,0.00290556649984,0.0,0.0,-0.0004654011494399,0.0,0.0,0.0,3.3306406147389964
2023-09-08 16:05:00.280,-0.03093,-0.0544058333333333,0.0316256666666666,0.0821195,0.0821196666666666,0.0665965,48.359254,-4.557286,50.697898333333335,50.788002,0.626025,0.6250988333333333,0.6225183333333333,-0.084609,0.006473,-9.815537,0.002646,-0.014222,0.030389,32.929375,-0.089224,-0.017261,-9.822893,0.00146,-0.01462,0.030315,-0.3501885059242666,-0.2941401247317333,0.8203820630037333,-0.1346359993045333,0.0116125376789333,-9.863179571675731,359.8411188034102,359.550972975956,142.50612010071788,0.001404,0.001402,0.012134,0.321391,0.003265,-0.002572,0.946937,0.001404,0.001402,0.012134,2.542546,0.0,0.0,0.0029446666666666,0.0,0.0,-0.0001959999999999,0.0,0.0,0.0,3.3549842629253988
2023-09-08 16:05:00.480,-0.03614,-0.05021,0.036944,0.082197,0.082198,0.066524,48.359254,-4.557286,50.665515,50.788002,0.614895,0.614018,0.611095,-0.0977765,-0.0194628333333333,-9.799187,0.0284635,-0.0093645,-0.005691,32.92734,-0.106144,-0.0160926666666666,-9.792813833333334,0.0285466666666666,-0.008645,-0.0055624999999999,-0.3687018392576,-0.2933017913984,0.8219562296704,-0.1324626659712,-0.0659532956544,-9.8918537383424,0.1047366849499144,359.3954722303575,142.60667419376333,0.001403,0.001402,0.012148,0.320549,0.00529,-0.000825,0.947217,0.001403,0.001402,0.012148,2.542546,0.0,0.0,0.003466,0.0,0.0,0.003396,0.0,0.0,0.0,3.455538355970845
2023-09-08 16:05:00.505,-0.0344231293952,-0.0484956293888,0.0369883748864,0.0825269991552,0.0825286241535999,0.0667014995456,48.359254,-4.557286,50.6646756271488,50.788002,0.6157412478336001,0.6148611228416,0.611819998144,-0.0994224332863999,-0.0227048042005333,-9.797143255232,0.0316906792384,-0.0087573140544,-0.0102009884543999,32.9270856256512,-0.1082589945856,-0.0159466253738666,-9.789053947125332,0.0319324913322666,-0.0078981269119999,-0.0100471760191999,-0.371016,-0.293197,0.822153,-0.132191,-0.075649,-9.895438,0.1522204406626555,359.38616169002165,142.58816054240324,0.0014048749951999,0.0014038749952,0.012154249984,0.3206996246144,0.0054999994624,-0.000459375936,0.9471651251328,0.0014048749951999,0.0014038749952,0.012154249984,2.542546,0.0,0.0,0.0033940835174399,0.0,0.0,0.00301258431488,0.0,0.0,0.0,3.437024704610764
