timestamp,north_vel,east_vel,down_vel,north_vel_dev,east_vel_dev,down_vel_dev,lat,long,alt,undulation,lat_dev,long_dev,alt_dev,accel_x,accel_y,accel_z,gyro_x,gyro_y,gyro_z,temp,delta_vel_x,delta_vel_y,delta_vel_z,delta_angle_x,delta_angle_y,delta_angle_z,mag_x,mag_y,mag_z,accel_x.1,accel_y.1,accel_z.1,roll,pitch,yaw,roll_dev,pitch_dev,yaw_dev,w_quat,x_quat,y_quat,z_quat,roll_dev.1,pitch_dev.1,yaw_dev.1,heave_period,surge_motion,sway_motion,heave_motion,surge_accel,sway_accel,heave_accel,surge_vel,sway_vel,heave_vel,wave_angle
2023-09-08 15:42:51.840,-0.004305,0.01946,-0.024713,0.087107,0.087116,0.070537,48.359249,-4.557295,48.543715,50.787003,0.587124,0.586302,0.579217,-0.081007,-0.007705,-9.798337,0.002468,0.001763,-0.005017,33.619785,-0.082285,-0.005791,-9.798512,0.002473,0.001815,-0.005058,-0.374316,-0.281986,0.827602,-0.071792,-0.015508,-9.80657,0.075916907854834,359.50078187310254,138.27694672751872,0.001428,0.001428,0.011014,0.356104,0.004307,-0.000932,0.934436,0.001428,0.001428,0.011014,2.152632,0.0,0.0,-8.3e-05,0.0,0.0,-0.001321,0.0,0.0,0.0,-0.8741891102737611
2023-09-08 15:42:51.865,-0.0042087502464,0.0194837499392,-0.0249629993599999,0.0874388741504,0.0874478741504,0.0707176245376,48.359249,-4.557295,48.5444824980352,50.787003,0.5881464973824,0.5873201223936,0.5800707478143999,-0.0805432511872,-0.011901864256,-9.8003313698944,0.0020080011776,0.0015073756544,-0.0051769995903999,33.6197687500416,-0.07959750688,-0.0129791065983999,-9.80068386944,0.001885501504,0.0014468759424,-0.0052223745792,-0.374316,-0.281986,0.827602,-0.071792,-0.015508,-9.80657,0.0768479618884172,359.5037898938264,138.27189754987506,0.0014292499968,0.0014292499968,0.011014,0.3561452498944,0.004285125056,-0.0009157500416,0.93442037504,0.0014292499968,0.0014292499968,0.011014,2.152632,0.0,0.0,-8.3e-05,0.0,0.0,-0.001321,0.0,0.0,0.0,-0.879238287917417
2023-09-08 15:42:51.880,-0.004151,0.019498,-0.025113,0.087638,0.087647,0.070826,48.359249,-4.557295,48.544943,50.787003,0.58876,0.587931,0.580583,-0.080265,-0.01442,-9.801528,0.001732,0.001354,-0.005273,33.619759,-0.077985,-0.017292,-9.801987,0.001533,0.001226,-0.005321,-0.372236616128,-0.2867125201664,0.8198278418303999,-0.0735908826752,-0.0161357526784,-9.8053482447872,0.0774065981221742,359.5055947185816,138.2688680226074,0.00143,0.00143,0.011014,0.35617,0.004272,-0.000906,0.934411,0.00143,0.00143,0.011014,2.152632,0.0,0.0,-8.3e-05,0.0,0.0,-0.001321,0.0,0.0,0.0,-0.882267815185088
2023-09-08 15:42:51.905,-0.0039591254912,0.0194548751104,-0.0251188333184,0.0879709158143999,0.0879797074816,0.0710059995392,48.359249,-4.557295,48.5456640398208,50.787003,0.5898064556543999,0.5889732889984,0.5814509144448,-0.0794893769856,-0.0184818646016,-9.803165495808,0.0011638764544,0.0010996256512,-0.0053998746752,33.6196540002688,-0.079634995776,-0.0186269965824,-9.8032794966912,0.0010917511296,0.0010810003712,-0.005417874752,-0.368771,-0.29459,0.806871,-0.076589,-0.017182,-9.803312,0.0773349785811293,359.5082446416003,138.2639620840458,0.0014318749952,0.0014318749952,0.011014,0.3562099998976,0.004250125056,-0.0008985000192,0.9343960000384,0.0014318749952,0.0014318749952,0.011014,2.152632,0.0,0.0,-8.3e-05,0.0,0.0,-0.001321,0.0,0.0,0.0,-0.88717375374668
2023-09-08 15:42:51.920,-0.003844,0.019429,-0.0251223333333333,0.0881706666666666,0.0881793333333333,0.071114,48.359249,-4.557295,48.54609666666667,50.787003,0.5904343333333333,0.5895986666666666,0.5819716666666667,-0.079024,-0.020919,-9.804148,0.000823,0.000947,-0.005476,33.619591,-0.080625,-0.019428,-9.804055,0.000827,0.000994,-0.005476,-0.36630067696,-0.291792488064,0.808944758848,-0.0764388118592,-0.014347925408,-9.8028344354624,0.077292006563148,359.5098346062656,138.2610185008141,0.001433,0.001433,0.011014,0.356234,0.004237,-0.000894,0.934387,0.001433,0.001433,0.011014,2.152632,0.0,0.0,-8.3e-05,0.0,0.0,-0.001321,0.0,0.0,0.0,-0.8901173369783919
2023-09-08 15:42:51.985,-0.0033451254912,0.0193168751104,-0.0251374999850666,0.0890362491477333,0.0890443741482666,0.0715819995392,48.359249,-4.557295,48.54797137315413,50.787003,0.5931551223210666,0.5923086223317333,0.5842282477781333,-0.0834147456768,-0.0105807601792,-9.8024978141248,0.0007563750656,-0.0007446233344,-0.0057628122176,33.6202141868864,-0.083229059936,-0.0087070730559999,-9.8026786263552,0.0007303125952,-0.0008073107264,-0.0059001245824,-0.355596,-0.27967,0.817931,-0.075788,-0.002067,-9.800765,0.0763609510627929,359.5112311895161,138.24281636578215,0.0014378749952,0.0014378749952,0.011018062496,0.3563826873535999,0.0042231875136,-0.000898062496,0.934330125056,0.0014378749952,0.0014378749952,0.011018062496,2.152632,0.0,0.0,-8.3e-05,0.0,0.0,-0.001321,0.0,0.0,0.0,-0.9083194720103336
2023-09-08 15:42:52.000,-0.00323,0.019291,-0.025141,0.089236,0.089244,0.07169,48.359249,-4.557295,48.548404,50.787003,0.593783,0.592934,0.584749,-0.084428,-0.008195,-9.802117,0.000741,-0.001135,-0.005829,33.620358,-0.08383,-0.006233,-9.802361,0.000708,-0.001223,-0.005998,-0.3614887751424,-0.2805808788864,0.8199451335936,-0.0800303931008,-0.0027592529535999,-9.8021045057152,0.0761460909728864,359.51155347965096,138.23861585102446,0.001439,0.001439,0.011019,0.356417,0.00422,-0.000899,0.934317,0.001439,0.001439,0.011019,2.152632,0.0,0.0,-8.3e-05,0.0,0.0,-0.001321,0.0,0.0,0.0,-0.912519986768018
2023-09-08 15:42:52.020,-0.002875,0.0186129999999999,-0.0251695,0.087643,0.087651,0.0708525,48.359249,-4.557295,48.5495785,50.787003,0.591835,0.5909925,0.5835375,-0.084959,-0.010626,-9.802067,0.0012425,-0.0017715,-0.006077,33.620007,-0.085091,-0.010094,-9.802404,0.001264,-0.001959,-0.0060745,-0.3693457751423999,-0.2817953788864,0.8226306335936,-0.0856868931008,-0.0036822529535999,-9.8038905057152,0.0774065981221742,359.5096913668168,138.23357382242733,0.0014299999999999,0.0014299999999999,0.011012,0.356458,0.0042385,-0.0008944999999999,0.9343015,0.0014299999999999,0.0014299999999999,0.011012,2.152632,0.0,0.0,-8.3e-05,0.0,0.0,-0.001321,0.0,0.0,0.0,-0.9175620153651494
2023-09-08 15:42:52.025,-0.002786251136,0.0184435021696,-0.0251766249088,0.0872447550976,0.0872527550976,0.07064312768,48.359249,-4.557295,48.5498721212416,50.787003,0.5913480062336001,0.5905071312128,0.5832346288768,-0.0850917483008,-0.0112337422208,-9.80205450016,0.0013678733951999,-0.0019306229632,-0.0061389992063999,33.6199192511232,-0.0854062459648,-0.0110592376448,-9.8024147498624,0.0014029982208,-0.0021429976447999,-0.0060936247552,-0.37131,-0.282099,0.823302,-0.087101,-0.003913,-9.804337,0.0777217208758732,359.509225844567,138.2323133314125,0.0014277500288,0.0014277500288,0.0110102500224,0.3564682498688,0.0042431249408,-0.0008933750143999,0.9342976250496,0.0014277500288,0.0014277500288,0.0110102500224,2.152632,0.0,0.0,-7.15001472e-05,0.0,0.0,-0.0012113264038399,0.0,0.0,0.0,-0.9188225063799678
2023-09-08 15:42:52.040,-0.00252,0.017935,-0.025198,0.08605,0.086058,0.070015,48.359249,-4.557295,48.550753,50.787003,0.589887,0.589051,0.582326,-0.08549,-0.013057,-9.802017,0.001744,-0.002408,-0.006325,33.619656,-0.086352,-0.013955,-9.802447,0.00182,-0.002695,-0.006151,-0.3714217504768,-0.2867516448511999,0.8202637370368,-0.0832189834368,-0.0073232645503999,-9.8074108881152,0.078667105271462,359.5078292539826,138.22853179383017,0.001421,0.001421,0.011005,0.356499,0.004257,-0.00089,0.934286,0.001421,0.001421,0.011005,2.152632,0.0,0.0,-3.7e-05,0.0,0.0,-0.0008822999999999,0.0,0.0,0.0,-0.9226040439623092
2023-09-08 15:42:52.065,-0.0023650003968,0.0178431252352,-0.0247867510528,0.0863806241536,0.0863886241535999,0.070196249536,48.359249,-4.557295,48.5514898731136,50.787003,0.5908919974272,0.5900522474368,0.5831722478336,-0.0836793796352,-0.011597628736,-9.7982695095936,0.0019002496,-0.0032561228288,-0.00599687584,33.619322250854395,-0.0838620063744,-0.0120193799551999,-9.798143886016,0.0019274997247999,-0.0034593730432,-0.0058847506816,-0.371608,-0.294506,0.8152,-0.076749,-0.013007,-9.812534,0.0802427351744488,359.5034604619789,138.22319613802233,0.0014228749951999,0.0014228749951999,0.011005,0.356542749888,0.004297624896,-0.0008906249984,0.9342691250432,0.0014228749951999,0.0014228749951999,0.011005,2.152632,0.0,0.0,2.049985279999999e-05,0.0,0.0,-0.0003339264038399,0.0,0.0,0.0,-0.9279396997701496
2023-09-08 15:42:52.080,-0.002272,0.017788,-0.02454,0.086579,0.086587,0.070305,48.359249,-4.557295,48.551932,50.787003,0.591495,0.590653,0.58368,-0.082593,-0.010722,-9.796021,0.001994,-0.003765,-0.0058,33.619122,-0.082368,-0.010858,-9.795562,0.001992,-0.003918,-0.005725,-0.3692331148672,-0.2922754904832,0.815004999168,-0.0762776229888,-0.0153331349248,-9.8048940924032,0.0811881195700376,359.500839168882,138.2199947226827,0.001424,0.001424,0.011005,0.356569,0.004322,-0.000891,0.934259,0.001424,0.001424,0.011005,2.152632,0.0,0.0,5.5e-05,0.0,0.0,-4.89999999999974e-06,0.0,0.0,0.0,-0.9311411151097672
2023-09-08 15:42:52.105,-0.002224083456,0.0176967502336,-0.0238960433152,0.0869106658176,0.0869186658176,0.0704860412032,48.359249,-4.557295,48.5525342901248,50.787003,0.5925237473664,0.5916773723776,0.584540414464,-0.0809392542336,-0.0111882488064,-9.7956322509952,0.0025996234496,-0.0046343727744,-0.0058449998848,33.6191120000256,-0.0806517543935999,-0.0118898723584,-9.7946826272512,0.0026163734016,-0.0046948730112,-0.0058524996736,-0.365275,-0.288558,0.81468,-0.075492,-0.01921,-9.792161,0.084231950064444,359.4946798883521,138.21351315421816,0.0014258749952,0.0014258749952,0.011005,0.3566214998656,0.0043819998464,-0.0008860000128,0.9342383750528,0.0014258749952,0.0014258749952,0.011005,2.152632,0.0,0.0,0.0001124998527999,0.0,0.0,0.00054347359616,0.0,0.0,0.0,-0.9376226835743182
2023-09-08 15:42:52.120,-0.0021953333333333,0.017642,-0.0235096666666666,0.0871096666666666,0.0871176666666666,0.0705946666666666,48.359249,-4.557295,48.55289566666666,50.787003,0.593141,0.592292,0.5850566666666667,-0.079947,-0.011468,-9.795399,0.002963,-0.005156,-0.005872,33.619106,-0.079622,-0.012509,-9.794155,0.002991,-0.005161,-0.005929,-0.3648783733077334,-0.2885756250751999,0.8146459998549334,-0.0756550006954666,-0.0196791270016,-9.791033495189334,0.0860582608286496,359.4909842948058,138.20962418659084,0.001427,0.001427,0.011005,0.356653,0.004418,-0.000883,0.934226,0.001427,0.001427,0.011005,2.152632,0.0,0.0,0.000147,0.0,0.0,0.0008725,0.0,0.0,0.0,-0.9415116512016368
2023-09-08 15:42:52.200,-0.002042,0.01735,-0.021449,0.088171,0.088179,0.071174,48.359249,-4.557295,48.554823,50.787003,0.596433,0.59557,0.58781,-0.0805423333333333,-0.0143186666666666,-9.788073,0.003559,-0.0068613333333333,-0.0056293333333333,33.618406666666665,-0.0802046666666666,-0.0142663333333333,-9.788098333333332,0.003675,-0.0069803333333333,-0.0056576666666666,-0.3627630399744,-0.2886696250752,0.8144646665216,-0.0765243340288,-0.0221811270016,-9.785020161856,0.0992935858961716,359.4639406868756,138.18458593094363,0.001432,0.001432,0.011011,0.356856,0.004679,-0.00086,0.934147,0.001432,0.001432,0.011011,2.152632,0.0,0.0,0.0003309999999999,0.0,0.0,0.0026273,0.0,0.0,0.0,-0.9665499068488544
2023-09-08 15:42:52.220,-0.0024465,0.017356,-0.0208544999999999,0.0872025,0.08721,0.070662,48.359249,-4.557295,48.5553295,50.787003,0.5953935,0.5945345,0.5872125,-0.0806911666666666,-0.0150313333333333,-9.7862415,0.003708,-0.0072876666666666,-0.0055686666666666,33.61823183333333,-0.0803503333333333,-0.0147056666666666,-9.786584166666666,0.0038459999999999,-0.0074351666666666,-0.0055898333333333,-0.3622342066410666,-0.2886931250752,0.8144193331882666,-0.0767416673621333,-0.0228066270016,-9.783516828522668,0.1030464594542785,359.45574739040524,138.17960119812597,0.0014264999999999,0.0014264999999999,0.011006,0.356896,0.0047575,-0.000855,0.9341315,0.0014264999999999,0.0014264999999999,0.011006,2.152632,0.0,0.0,0.000377,0.0,0.0,0.003066,0.0,0.0,0.0,-0.9715346396665154
2023-09-08 15:42:52.225,-0.0025476237056,0.0173574999808,-0.0207058769024,0.0869603780992,0.0869677531008,0.0705340016384,48.359249,-4.557295,48.5554561233792,50.787003,0.5951336283264,0.5942756283136,0.587063126912,-0.0807283745237333,-0.0152094977194666,-9.7857836308608,0.0037452495232,-0.0073942486357333,-0.0055535001941333,33.61818812555947,-0.0803867495338666,-0.0148154985941333,-9.786205629845332,0.0038887494527999,-0.0075488735445333,-0.0055728752170666,-0.362102,-0.288699,0.814408,-0.076796,-0.022963,-9.783141,0.1039846658346098,359.4536990925062,138.17835503087272,0.0014251250176,0.0014251250176,0.011004750016,0.356905999872,0.0047771247488,-0.000853750016,0.9341276250496,0.0014251250176,0.0014251250176,0.011004750016,2.152632,0.0,0.0,0.00040409965312,0.0,0.0,0.00323084788992,0.0,0.0,0.0,-0.972780806919758
2023-09-08 15:42:52.240,-0.002851,0.017362,-0.02026,0.086234,0.086241,0.07015,48.359249,-4.557295,48.555836,50.787003,0.594354,0.593499,0.586615,-0.08084,-0.015744,-9.78441,0.003857,-0.007714,-0.005508,33.618057,-0.080496,-0.015145,-9.78507,0.004017,-0.00789,-0.005522,-0.3656671402112,-0.2908766342912,0.8147050012672,-0.0739812379904,-0.0208944911744,-9.778524730304,0.1067993330123854,359.44755409393485,138.17461646530833,0.001421,0.001421,0.011001,0.356936,0.004836,-0.00085,0.934116,0.001421,0.001421,0.011001,2.152632,0.0,0.0,0.0004854,0.0,0.0,0.0037254,0.0,0.0,0.0,-0.976519372484148
2023-09-08 15:42:52.265,-0.0029672497024,0.0174332498176,-0.0193637522944,0.0865639991552,0.0865709991552,0.0703318745344,48.359249,-4.557295,48.5564134985216,50.787003,0.5953664974080001,0.5945071224192,0.5874668728192,-0.081158749184,-0.0136321304064,-9.7807968842496,0.00381012512,-0.0078021247743999,-0.0054261252096,33.6184144990848,-0.080608499712,-0.0144675017344,-9.7812375098112,0.0039501251712,-0.0077593753344,-0.0054607501568,-0.371609,-0.294506,0.8152,-0.06929,-0.017447,-9.770831,0.1111323152455993,359.43777802658224,138.1687794727132,0.0014228749951999,0.0014228749951999,0.011001,0.3569834998784,0.0049291247616,-0.0008456250111999,0.934097250048,0.0014228749951999,0.0014228749951999,0.011001,2.152632,0.0,0.0,0.00062089965312,0.0,0.0,0.00454964788992,0.0,0.0,0.0,-0.9823563650792836
2023-09-08 15:42:52.280,-0.003037,0.017476,-0.018826,0.086762,0.086769,0.070441,48.359249,-4.557295,48.55676,50.787003,0.595974,0.595112,0.587978,-0.08135,-0.012365,-9.778629,0.003782,-0.007855,-0.005377,33.618629,-0.080676,-0.014061,-9.778938,0.00391,-0.007681,-0.005424,-0.3714938745088,-0.2910214851328,0.818233762944,-0.0719566363776,-0.012855105408,-9.7753396442368,0.1137321223334684,359.4319123461278,138.16527725324772,0.001424,0.001424,0.011001,0.357012,0.004985,-0.000843,0.934086,0.001424,0.001424,0.011001,2.152632,0.0,0.0,0.0007021999999999,0.0,0.0,0.0050442,0.0,0.0,0.0,-0.9858585845447578
2023-09-08 15:42:52.305,-0.0034407489664,0.0174491250688,-0.0180785019135999,0.087093249152,0.087100249152,0.0706216245376,48.359249,-4.557295,48.557325623552,50.787003,0.5969983723776,0.5961319973888001,0.5888373728,-0.0788331314432,-0.0120506258048,-9.7796139974784,0.003478875776,-0.0074668759936,-0.0053188751488,33.6185340002432,-0.078538505472,-0.011501631552,-9.7793804988672,0.0033931263232,-0.007471625536,-0.0052752503808,-0.371302,-0.285214,0.82329,-0.076401,-0.005202,-9.782854,0.1168833821394421,359.42263761556245,138.15990578766937,0.0014258749952,0.0014258749952,0.011001,0.357055749888,0.0050706247807999,-0.000846124992,0.9340691250432,0.0014258749952,0.0014258749952,0.011001,2.152632,0.0,0.0,0.0008376996531199,0.0,0.0,0.0058684478899199,0.0,0.0,0.0,-0.9912300501231072
2023-09-08 15:42:52.320,-0.003683,0.017433,-0.01763,0.087292,0.087299,0.07073,48.359249,-4.557295,48.557665,50.787003,0.597613,0.596744,0.589353,-0.077323,-0.011862,-9.780205,0.003297,-0.007234,-0.005284,33.618477,-0.077256,-0.009966,-9.779646,0.003083,-0.007346,-0.005186,-0.3680417360896,-0.2864886304384,0.8154269664511999,-0.0781458824448,-0.0103890221312,-9.7843663814528,0.1187741509306196,359.4170727392339,138.15668288632077,0.001427,0.001427,0.011001,0.357082,0.005122,-0.000848,0.934059,0.001427,0.001427,0.011001,2.152632,0.0,0.0,0.000919,0.0,0.0,0.006363,0.0,0.0,0.0,-0.9944529514717146
2023-09-08 15:42:52.345,-0.0041842487168,0.0173980000896,-0.0168993768704,0.0876226241535999,0.0876296241536,0.070911249536,48.359249,-4.557295,48.55810249888,50.787003,0.5986492473471999,0.5977758723584,0.5902198727808,-0.0762036278656,-0.009865130112,-9.7775837567104,0.002715751488,-0.0067283762944,-0.0047902512639999,33.6186226246272,-0.0770266255872,-0.0098022504192,-9.7771810063104,0.0026105012096,-0.0067516265215999,-0.0047053762304,-0.362608,-0.288613,0.802322,-0.081054,-0.019034,-9.786887,0.1208511176209205,359.4091229701779,138.15077427418456,0.0014288749952,0.0014288749952,0.011004124992,0.3571294998784,0.0051932498176,-0.0008561249792,0.934040250048,0.0014288749952,0.0014288749952,0.011004124992,2.152632,0.0,0.0,0.00110099953408,0.0,0.0,0.00695699847936,0.0,0.0,0.0,-1.0003615636079246
2023-09-08 15:42:52.360,-0.004485,0.017377,-0.016461,0.087821,0.087828,0.07102,48.359249,-4.557295,48.558365,50.787003,0.599271,0.598395,0.59074,-0.075532,-0.008667,-9.776011,0.002367,-0.006425,-0.004494,33.61871,-0.076889,-0.009704,-9.775702,0.002327,-0.006395,-0.004417,-0.3613521196415999,-0.2886778752768,0.8037316310144,-0.0762986047104,-0.019589002368,-9.7827372322944,0.1220973061423784,359.404353076182,138.1472290827011,0.00143,0.00143,0.011006,0.357158,0.005236,-0.000861,0.934029,0.00143,0.00143,0.011006,2.152632,0.0,0.0,0.0012102,0.0,0.0,0.0073133999999999,0.0,0.0,0.0,-1.0039067550913785
2023-09-08 15:42:52.385,-0.0048187491456,0.0175663745152,-0.0160178761344,0.0881528741504,0.0881598741504,0.0711999995392,48.359249,-4.557295,48.5588543737472,50.787003,0.6003184973184,0.599438747328,0.5916124977664,-0.0774213701632,-0.0135513624959999,-9.7793678664064,0.0023245001088,-0.0061650006656,-0.0043640003328,33.6187000000256,-0.0777214978688,-0.0143777380352,-9.779580115072,0.0021826253696,-0.0060518758783999,-0.0043445001856,-0.359259,-0.288786,0.806081,-0.068373,-0.020514,-9.775821,0.1238161751274549,359.3972269318481,138.14246638322163,0.0014318749952,0.0014318749952,0.011006,0.3571967499007999,0.0052991248384,-0.0008697499776,0.9340140000384,0.0014318749952,0.0014318749952,0.011006,2.152632,0.0,0.0,0.00139219953408,0.0,0.0,0.0079073984793599,0.0,0.0,0.0,-1.0086694545708497
2023-09-08 15:42:52.400,-0.005019,0.01768,-0.015752,0.088352,0.088359,0.071308,48.359249,-4.557295,48.559148,50.787003,0.600947,0.600065,0.592136,-0.078555,-0.016482,-9.781382,0.002299,-0.006009,-0.004286,33.618694,-0.078221,-0.017182,-9.781907,0.002096,-0.005846,-0.004301,-0.3625747641472,-0.2910045094656,0.8124192770432,-0.0748166524928,-0.0238237641216,-9.7747211203072,0.1248475035590063,359.3929512160589,138.13960874402588,0.001433,0.001433,0.011006,0.35722,0.005337,-0.000875,0.934005,0.001433,0.001433,0.011006,2.152632,0.0,0.0,0.0015014,0.0,0.0,0.0082638,0.0,0.0,0.0,-1.0115270937666023
2023-09-08 15:42:52.420,-0.005222,0.017693,-0.0147219999999999,0.087076,0.0870845,0.070514,48.359249,-4.557295,48.548454,50.787003,0.5881565,0.5873275,0.5801755,-0.0786765,-0.01578,-9.7796345,0.0018319999999999,-0.0055414999999999,-0.0043645,33.6179695,-0.078317,-0.0160135,-9.7794665,0.0017385,-0.0054684999999999,-0.004385,-0.3669957641472,-0.2939625094656,0.8208702770432,-0.0834081524928,-0.0282367641216,-9.7732546203072,0.1254777571336502,359.3881383705798,138.1355693915702,0.0014269999999999,0.0014269999999999,0.0110005,0.3572525,0.005378,-0.0008849999999999,0.933992,0.0014269999999999,0.0014269999999999,0.0110005,2.152632,0.0,0.0,0.001647,0.0,0.0,0.008739,0.0,0.0,0.0,-1.0155664462222944
2023-09-08 15:42:52.425,-0.0052727493504,0.0176962499584,-0.0144645032959999,0.0867570040832,0.0867658790784,0.0703155025408,48.359249,-4.557295,48.5457805342208,50.787003,0.5849589159296,0.58414316576,0.5771854132736001,-0.0787068746112,-0.0156045022464,-9.779197630592,0.0017152514943999,-0.005424626496,-0.0043841247488,33.6177883773184,-0.0783409996927999,-0.0157213787392,-9.7788563828096,0.001649126144,-0.005374126208,-0.0044059997312,-0.368101,-0.294702,0.822983,-0.085556,-0.02934,-9.772888,0.1256353185104998,359.38693517461115,138.13455956638222,0.0014255000192,0.0014255000192,0.0109991250176,0.357260624896,0.0053882498688,-0.000887499968,0.9339887500416,0.0014255000192,0.0014255000192,0.0109991250176,2.152632,0.0,0.0,0.00169819934464,0.0,0.0,0.0087910326673066,0.0,0.0,0.0,-1.0165762714102584
2023-09-08 15:42:52.440,-0.005425,0.017706,-0.013692,0.0858,0.08581,0.06972,48.359249,-4.557295,48.53776,50.787003,0.575366,0.57459,0.568215,-0.078798,-0.015078,-9.777887,0.001365,-0.005074,-0.004443,33.617245,-0.078413,-0.014845,-9.777026,0.001381,-0.005091,-0.004469,-0.363396604928,-0.2949060008704,0.8210663668224001,-0.0786852206848,-0.0222269696512,-9.7743471312256,0.1261080107082942,359.3833255251007,138.13153003911452,0.001421,0.001421,0.010995,0.357285,0.005419,-0.000895,0.933979,0.001421,0.001421,0.010995,2.152632,0.0,0.0,0.0018518,0.0,0.0,0.0089471333333333,0.0,0.0,0.0,-1.019605798677958
2023-09-08 15:42:52.465,-0.0060768733312,0.0177803748096,-0.0132607511039999,0.086131249152,0.086141249152,0.0699024995328,48.359249,-4.557295,48.5382337487872,50.787003,0.5763484974848,0.575568122496,0.5690418728832,-0.076288631424,-0.0137142534912,-9.7781551243136,0.0013037501567999,-0.004645876096,-0.0040486260096,33.6172662499456,-0.0763067553919999,-0.0123975062656,-9.7791841194752,0.00136537504,-0.0046047512448,-0.0040196261504,-0.355556,-0.295246,0.817872,-0.067234,-0.010372,-9.776779,0.1267525865776978,359.3783837767686,138.1281281109149,0.0014228749951999,0.0014228749951999,0.010995,0.357313124928,0.0054614998912,-0.0009049999744,0.9339683750272,0.0014228749951999,0.0014228749951999,0.010995,2.152632,0.0,0.0,0.00210779934464,0.0,0.0,0.0092072993339733,0.0,0.0,0.0,-1.02300772687758
2023-09-08 15:42:52.480,-0.006468,0.017825,-0.013002,0.08633,0.08634,0.070012,48.359249,-4.557295,48.538518,50.787003,0.576938,0.576155,0.569538,-0.074783,-0.012896,-9.778316,0.001267,-0.004389,-0.003812,33.617279,-0.075043,-0.010929,-9.780479,0.001356,-0.004313,-0.00375,-0.3591350152704,-0.293916619328,0.8181810013184,-0.066855248384,-0.013835139776,-9.7786506329856,0.1271393347395296,359.3754187075279,138.1260869400608,0.001424,0.001424,0.010995,0.35733,0.005487,-0.000911,0.933962,0.001424,0.001424,0.010995,2.152632,0.0,0.0,0.0022614,0.0,0.0,0.0093634,0.0,0.0,0.0,-1.0250488977316934
2023-09-08 15:42:52.505,-0.0068811239423999,0.01797537461504,-0.01289525027328,0.08625275019776,0.08626262519808,0.06997600009216,48.359249,-4.557295,48.53914274840064,50.787003,0.57735662392832,0.57657174893312,0.56997262388736,-0.0736330029439999,-0.0167103652352,-9.7803447448064,0.0011476253056,-0.0037865015424,-0.0038013750272,33.61710712544,-0.0737955031936,-0.0169921094784,-9.7801815007616,0.0010460007936,-0.0037642514048,-0.0037706249472,-0.3651,-0.291701,0.818696,-0.066224,-0.019607,-9.78177,0.1271035249690071,359.37173030116406,138.1219330066802,0.0014258749952,0.0014258749952,0.010995,0.3573637499136,0.0055169999232,-0.000923499968,0.9339488750336,0.0014258749952,0.0014258749952,0.010995,2.152632,0.0,0.0,0.00251739934464,0.0,0.0,0.00962356600064,0.0,0.0,0.0,-1.0292028311122865
2023-09-08 15:42:52.520,-0.007129,0.0180656,-0.0128312,0.0862064,0.0862162,0.0699544,48.359249,-4.557295,48.5395176,50.787003,0.5776078,0.5768217999999999,0.5702334,-0.072943,-0.018999,-9.781562,0.001076,-0.003425,-0.003795,33.617004,-0.073047,-0.02063,-9.780003,0.00086,-0.003435,-0.003783,-0.3653794699424,-0.2922749399488,0.8190971579616,-0.0680555078144,-0.0201785961888,-9.7835122574336,0.1270820389600165,359.36951724223803,138.11944062963727,0.001427,0.001427,0.010995,0.357384,0.005535,-0.000931,0.933941,0.001427,0.001427,0.010995,2.152632,0.0,0.0,0.0026709999999999,0.0,0.0,0.0097796666666666,0.0,0.0,0.0,-1.031695208155213
2023-09-08 15:42:52.665,-0.0095251239424,0.01893777461504,-0.01221205027328,0.08575835019776,0.08576742519808,0.0697456000921599,48.359249,-4.557295,48.54314114840064,50.787003,0.58003582392832,0.57923894893312,0.5727542238873601,-0.0766776546015999,-0.0167533134912,-9.7950189003104,-0.0025888733824,-0.0019559693983999,-0.0028488754176,33.6184839055968,-0.077116060704,-0.0180943136192,-9.7956113368608,-0.002837498368,-0.00193968816,-0.0028975941408,-0.368081,-0.297823,0.822975,-0.08576,-0.025704,-9.800354,0.108804693362589,359.36006702377574,138.10225369386242,0.0014206562528,0.0014206562528,0.0109886562527999,0.3575235624384,0.0055549374912,-0.0011095311712,0.933886625024,0.0014206562528,0.0014206562528,0.0109886562527999,2.152632,0.0,0.0,0.00415579934464,0.0,0.0,0.0112886326673066,0.0,0.0,0.0,-1.048882143930058
2023-09-08 15:42:52.680,-0.009773,0.019028,-0.012148,0.085712,0.085721,0.069724,48.359249,-4.557295,48.543516,50.787003,0.580287,0.579489,0.573015,-0.077064,-0.016521,-9.796411,-0.002968,-0.001804,-0.002751,33.618637,-0.077537,-0.017832,-9.797226,-0.00322,-0.001785,-0.002806,-0.3680836250112,-0.296654870016,0.8229795000192001,-0.0800734757376,-0.019540848704,-9.7969726105728,0.1069139245714116,359.35908941036666,138.10047572661844,0.00142,0.00142,0.010988,0.357538,0.005557,-0.001128,0.933881,0.00142,0.00142,0.010988,2.152632,0.0,0.0,0.0043094,0.0,0.0,0.0114447333333333,0.0,0.0,0.0,-1.0506601111740397
2023-09-08 15:42:52.705,-0.0104023733888,0.0192423744512,-0.0120986251264,0.086043249152,0.086052249152,0.0699064995328,48.359249,-4.557295,48.5439122489856,50.787003,0.5812738724736,0.5804721224832,0.5738468728704,-0.0774227490816,-0.01223976096,-9.7974459973504,-0.0039598724608,-0.0016890002944,-0.0032441237376,33.619042623961604,-0.0765263775872,-0.0122370143232,-9.7969985005824,-0.0041531226112,-0.0016900002432,-0.0032772487936,-0.368088,-0.294708,0.822987,-0.070596,-0.009269,-9.791337,0.0988925359743874,359.3579793074805,138.09725284727142,0.0014218749952,0.0014218749952,0.010988,0.3575648749312,0.0055407500416,-0.0011973748224,0.9338710000256,0.0014218749952,0.0014218749952,0.010988,2.152632,0.0,0.0,0.00456539934464,0.0,0.0,0.0117048993339733,0.0,0.0,0.0,-1.0538829905210605
2023-09-08 15:42:52.720,-0.01078,0.019371,-0.012069,0.086242,0.086251,0.070016,48.359249,-4.557295,48.54415,50.787003,0.581866,0.581062,0.574346,-0.077638,-0.009671,-9.798067,-0.004555,-0.00162,-0.00354,33.619286,-0.07592,-0.00888,-9.796862,-0.004713,-0.001633,-0.00356,-0.365779865152,-0.2912984854528,0.8212856177408,-0.077377903936,-0.0099473778943999,-9.7948380149376,0.0940796699604811,359.3573132412018,138.09531910646226,0.001423,0.001423,0.010988,0.357581,0.005531,-0.001239,0.933865,0.001423,0.001423,0.010988,2.152632,0.0,0.0,0.004719,0.0,0.0,0.011861,0.0,0.0,0.0,-1.055816731330225
2023-09-08 15:42:52.745,-0.0112999986688,0.0195597495168,-0.0119683752576,0.0865738741504,0.086582249152,0.0701984995328,48.359249,-4.557295,48.54444687424,50.787003,0.5828653724416,0.5820569974528,0.5751853728512,-0.0784898728192,-0.0100297490816,-9.7978188756352,-0.0059881213312,-0.0017506246656,-0.0036631246848,33.619454749568,-0.0785606182399999,-0.0091687492608,-9.7979888721152,-0.0061336213632,-0.001673624896,-0.0036143748608,-0.361933,-0.285616,0.81845,-0.088681,-0.011078,-9.800673,0.0827995922459159,359.35613151877453,138.09055640698276,0.0014248749952,0.0014248749952,0.010991124992,0.3576203748992,0.0055053750656,-0.0013346247552,0.9338500000384,0.0014248749952,0.0014248749952,0.010991124992,2.152632,0.0,0.0,0.00500637426432,0.0,0.0,0.01178550019328,0.0,0.0,0.0,-1.0605794308097245
2023-09-08 15:42:52.760,-0.011612,0.019673,-0.011908,0.086773,0.086781,0.070308,48.359249,-4.557295,48.544625,50.787003,0.583465,0.582654,0.575689,-0.079001,-0.010245,-9.79767,-0.006848,-0.001829,-0.003737,33.619556,-0.080145,-0.009342,-9.798665,-0.006986,-0.001698,-0.003647,-0.3680009008896,-0.2911690236928,0.815914989184,-0.0824885985791999,-0.011576752128,-9.8067754010368,0.0760314994138602,359.35542248047784,138.087698767787,0.001426,0.001426,0.010993,0.357644,0.00549,-0.001392,0.933841,0.001426,0.001426,0.010993,2.152632,0.0,0.0,0.0051788,0.0,0.0,0.0117402,0.0,0.0,0.0,-1.0634370700054774
2023-09-08 15:42:52.785,-0.0116653331968,0.0199904991872,-0.01216320768,0.0864030009472,0.0864110009472,0.0701136254976,48.359249,-4.557295,48.5455077060736,50.787003,0.5834487500416,0.582637333376,0.5758177496704,-0.082191616832,-0.0107799986304,-9.802432487808,-0.00753549824,-0.0016096255616,-0.0036263752831999,33.6193391255552,-0.081938745408,-0.0109663708416,-9.8031268635776,-0.0076509982976,-0.0016555001088,-0.0036863748992,-0.378114,-0.300424,0.81169,-0.072168,-0.012408,-9.816946,0.0632116015668305,359.3543123775916,138.08458331775157,0.0014278749951999,0.0014278749951999,0.0109936249984,0.3576702499328,0.0054593750784,-0.0015001247232,0.9338310000256,0.0014278749951999,0.0014278749951999,0.0109936249984,2.152632,0.0,0.0,0.00546617426432,0.0,0.0,0.01166470019328,0.0,0.0,0.0,-1.066552520040915
2023-09-08 15:42:52.800,-0.0116973333333333,0.020181,-0.0123163333333333,0.086181,0.086189,0.069997,48.359249,-4.557295,48.54603733333334,50.787003,0.583439,0.5826273333333334,0.575895,-0.084106,-0.011101,-9.80529,-0.007948,-0.001478,-0.00356,33.619209,-0.083015,-0.011941,-9.805804,-0.00805,-0.00163,-0.00371,-0.37573742736,-0.2981942404864,0.8114955616704,-0.0747930112,-0.0124063124928,-9.8139184245824,0.0555196103481767,359.3536463113129,138.08271403496937,0.001429,0.001429,0.010994,0.357686,0.005441,-0.001565,0.933825,0.001429,0.001429,0.010994,2.152632,0.0,0.0,0.0056386,0.0,0.0,0.0116194,0.0,0.0,0.0,-1.06842180282311
2023-09-08 15:42:52.865,-0.0118359998634666,0.0210064991872,-0.0129798743466666,0.0852190009472,0.0852270009472,0.0694916254976,48.359249,-4.557295,48.54833237274027,50.787003,0.5833967500416,0.5825840000426667,0.5762297496704,-0.0808446282112,-0.0111684374336,-9.8073041855168,-0.0089327490304,-0.0010863753856,-0.0038589997056,33.6200028117184,-0.0810901893951999,-0.0122765621696,-9.8076816856512,-0.0089494366144,-0.0009962506239999,-0.0038822498304,-0.365439,-0.288532,0.810653,-0.086168,-0.012399,-9.800799,0.0187894708591674,359.3533669946628,138.07382245494097,0.0014184375103999,0.0014184375103999,0.0109834375104,0.3577599374272,0.0053280626112,-0.001865624704,0.933796562528,0.0014184375103999,0.0014184375103999,0.0109834375104,2.152632,0.0,0.0,0.00638577426432,0.0,0.0,0.01142310019328,0.0,0.0,0.0,-1.0773133828515142
2023-09-08 15:42:52.880,-0.011868,0.021197,-0.013133,0.084997,0.085005,0.069375,48.359249,-4.557295,48.548862,50.787003,0.583387,0.582574,0.576307,-0.080092,-0.011184,-9.807769,-0.00916,-0.000996,-0.003928,33.620186,-0.080646,-0.012354,-9.808115,-0.009157,-0.00085,-0.003922,-0.3618517346944,-0.2921991406464,0.8103357486464,-0.0852128709248,-0.007409603712,-9.8063163985408,0.0103132403123548,359.35330253663585,138.07177054108237,0.001416,0.001416,0.010981,0.357777,0.005302,-0.001935,0.93379,0.001416,0.001416,0.010981,2.152632,0.0,0.0,0.0065582,0.0,0.0,0.0113778,0.0,0.0,0.0,-1.0793652967101082
2023-09-08 15:42:52.905,-0.0120983119104,0.0217373111168,-0.013623623744,0.0853279366528,0.0853356241535999,0.0695581245312,48.359249,-4.557295,48.5492710614528,50.787003,0.5843694974848,0.5835524349952,0.5771385603712,-0.0816457460224,-0.0093321297408,-9.8130477364864,-0.0088018759168,-0.0010078749696,-0.0045136235008,33.6200478753536,-0.0824747453183999,-0.0086171345664,-9.8139037351808,-0.008691376192,-0.0009599997184,-0.0045582483712,-0.355873,-0.298311,0.809807,-0.083621,0.000906,-9.815512,224.996416005678,359.35305186824223,138.06707946114392,0.0014172499968,0.0014172499968,0.010981,0.3578157499008,0.0052626251008,-0.00204437472,0.9337750000384,0.0014172499968,0.0014172499968,0.010981,2.152632,0.0,0.0,0.00684557426432,0.0,0.0,0.01130230019328,0.0,0.0,0.0,-1.0840563766485616
2023-09-08 15:42:52.920,-0.0122365,0.0220614999999999,-0.013918,0.0855265,0.085534,0.069668,48.359249,-4.557295,48.5495165,50.787003,0.584959,0.5841395,0.5776375,-0.082578,-0.008221,-9.816215,-0.008587,-0.001015,-0.004865,33.619965,-0.083572,-0.006375,-9.817377,-0.008412,-0.001026,-0.00494,-0.3593203897088,-0.2981718744064,0.813133264192,-0.083521624576,0.0006157487616,-9.8179483853952,359.9889992103335,359.3529014661793,138.06426479396615,0.001418,0.001418,0.010981,0.357839,0.005239,-0.00211,0.933766,0.001418,0.001418,0.010981,2.152632,0.0,0.0,0.007018,0.0,0.0,0.011257,0.0,0.0,0.0,-1.086871043826335
2023-09-08 15:42:52.945,-0.0124668119104,0.0226018111168,-0.014408623744,0.0858574366527999,0.0858646241536,0.0698511245312,48.359249,-4.557295,48.5499255614528,50.787003,0.5859414974848001,0.5851179349952,0.5784690603712,-0.0795080078592,-0.0062660050048,-9.8197437409664,-0.0075363776895999,-0.0003268767616,-0.0051749992064,33.6201218745984,-0.0794882604544,-0.005931251136,-9.8197976188032,-0.0074170025471999,-0.0004441264896,-0.0051362494976,-0.365066,-0.29794,0.818677,-0.083356,0.000132,-9.822009,359.9780056107831,359.35401156906545,138.05721026917325,0.0014198749951999,0.0014198749951999,0.0109847499904,0.3578971248512,0.005195250112,-0.0021968747776,0.933744125056,0.0014198749951999,0.0014198749951999,0.0109847499904,2.152632,0.0,0.0,0.00721537449472,0.0,0.0,0.0106906264499199,0.0,0.0,0.0,-1.0939255686192269
2023-09-08 15:42:52.960,-0.012605,0.022926,-0.014703,0.086056,0.086063,0.069961,48.359249,-4.557295,48.550171,50.787003,0.586531,0.585705,0.578968,-0.077666,-0.005093,-9.821861,-0.006906,8.6e-05,-0.005361,33.620216,-0.077038,-0.005665,-9.82125,-0.00682,-9.5e-05,-0.005254,-0.3650611249792,-0.2991092549888,0.818673249984,-0.08257787168,-0.001776758144,-9.8183643594496,359.971409406023,359.35467763534416,138.0529775254021,0.001421,0.001421,0.010987,0.357932,0.005169,-0.002249,0.933731,0.001421,0.001421,0.010987,2.152632,0.0,0.0,0.0073338,0.0,0.0,0.0103508,0.0,0.0,0.0,-1.0981583123903818
2023-09-08 15:42:52.985,-0.0129224991871999,0.0236775605759999,-0.015221748672,0.0857875631871999,0.0857948756864,0.0698203753599999,48.359249,-4.557295,48.5508713107072,50.787003,0.5866553746816,0.585828437184,0.5791951869184,-0.0792797458688,-0.0050936249983999,-9.8189978823296,-0.0056191282944,0.0007072484096,-0.0062278727808,33.620378499584,-0.0790811197696,-0.0054718754943999,-9.8188868810496,-0.0053256288256,0.0007693727872,-0.0063083723008,-0.365053,-0.301058,0.818667,-0.081281,-0.004958,-9.81229,359.9638177346722,359.3577214658386,138.04506356611662,0.0014228749951999,0.0014228749951999,0.010987,0.3579969998336,0.0051202501248,-0.0023014998656,0.933706000064,0.0014228749951999,0.0014228749951999,0.010987,2.152632,0.0,0.0,0.00753117449472,0.0,0.0,0.00978442644992,0.0,0.0,0.0,-1.1060722716758562
2023-09-08 15:42:53.000,-0.013113,0.0241284999999999,-0.015533,0.0856265,0.085634,0.0697359999999999,48.359249,-4.557295,48.5512915,50.787003,0.58673,0.5859025,0.5793315,-0.080248,-0.005094,-9.81728,-0.004847,0.00108,-0.006748,33.620476,-0.080307,-0.005356,-9.817469,-0.004429,0.001288,-0.006941,-0.365155187936,-0.2992883674495999,0.8164068653568001,-0.0821343161408,-0.0082943892352,-9.8143165086464,359.9592627007662,359.3595477766028,138.0403151581297,0.001424,0.001424,0.010987,0.358036,0.005091,-0.002333,0.933691,0.001424,0.001424,0.010987,2.152632,0.0,0.0,0.0076496,0.0,0.0,0.0094446,0.0,0.0,0.0,-1.110820679662794
2023-09-08 15:42:53.040,-0.013621,0.025331,-0.016363,0.085197,0.085205,0.069511,48.359249,-4.557295,48.552412,50.787003,0.586929,0.5861,0.579695,-0.079709,-0.010757,-9.820658,-0.0018619999999999,0.002287,-0.007027,33.620391999999995,-0.080198,-0.010897,-9.8205665,-0.001465,0.002441,-0.00716,-0.365427687936,-0.2945693674496,0.8103798653568001,-0.0844098161408,-0.0171913892352,-9.8197205086464,359.957285996373,359.3678556646322,138.0277960303061,0.0014215,0.0014215,0.0109835,0.358138,0.005017,-0.0023235,0.9336525,0.0014215,0.0014215,0.0109835,2.152632,0.0,0.0,0.0079654,0.0,0.0,0.0085384,0.0,0.0,0.0,-1.1233398074863885
2023-09-08 15:42:53.065,-0.0133641256576,0.0263234974592,-0.0171554979712,0.085528249152,0.0855356241536,0.0696934995328,48.359249,-4.557295,48.5529907485184,50.787003,0.5879127474816,0.5870799974912,0.5805281228672,-0.0793721258624,-0.0142963659392,-9.8227692445952,3.620224000000158e-06,0.0030413730688,-0.0072013745536,33.6203395001344,-0.0801298751744,-0.0143601161344,-9.822502432544,0.0003874952576,0.0031616231552,-0.0072968746496,-0.365598,-0.29162,0.806613,-0.085832,-0.022752,-9.823098,359.95605055929,359.3730480813579,138.01997159544692,0.001419937504,0.001419937504,0.0109813125056,0.3582017498368,0.0049707501184,-0.0023175625152,0.9336284375616,0.001419937504,0.001419937504,0.0109813125056,2.152632,0.0,0.0,0.00816277449472,0.0,0.0,0.00797202644992,0.0,0.0,0.0,-1.1311642423455623
2023-09-08 15:42:53.080,-0.01321,0.026919,-0.017631,0.085727,0.085734,0.069803,48.359249,-4.557295,48.553338,50.787003,0.588503,0.587668,0.581028,-0.07917,-0.01642,-9.824036,0.001123,0.003494,-0.007306,33.620308,-0.080089,-0.016438,-9.823664,0.001499,0.003594,-0.007379,-0.3667188797824,-0.2939142597888,0.8082168818432001,-0.0825687360768,-0.0180543549568,-9.825434259968,359.9553092919798,359.3761635526616,138.01527690248247,0.001419,0.001419,0.01098,0.35824,0.004943,-0.002314,0.933614,0.001419,0.001419,0.01098,2.152632,0.0,0.0,0.0082812,0.0,0.0,0.0076322,0.0,0.0,0.0,-1.1358589353100117
2023-09-08 15:42:53.105,-0.0131275002111999,0.0277139979648,-0.0184903727999999,0.086058249152,0.0860652491519999,0.0699848745344,48.359249,-4.557295,48.5539461234432,50.787003,0.5894986224512,0.5886592474624,0.5818673728511999,-0.0793474995456,-0.0129593838592,-9.8275872409088,0.0028348706176,0.0043852477184,-0.0073634998528,33.6198523761664,-0.0788771281024,-0.011978636416,-9.8270877412352,0.0030558710144,0.0044952476928,-0.0074177499008,-0.368587,-0.297738,0.81089,-0.07713,-0.010225,-9.829328,359.9597855132951,359.38457884873435,138.0068974161802,0.0014208749952,0.0014208749952,0.01098,0.358308749824,0.0048880001408,-0.00225150016,0.9335877500672,0.0014208749952,0.0014208749952,0.01098,2.152632,0.0,0.0,0.00847857449472,0.0,0.0,0.00706582644992,0.0,0.0,0.0,-1.1442384216122718
2023-09-08 15:42:53.120,-0.013078,0.028191,-0.019006,0.086257,0.086264,0.070094,48.359249,-4.557295,48.554311,50.787003,0.590096,0.589254,0.582371,-0.079454,-0.010883,-9.829718,0.003862,0.00492,-0.007398,33.619579,-0.07815,-0.009303,-9.829142,0.00399,0.005036,-0.007441,-0.3685918750208,-0.2965687450112,0.810893750016,-0.0788291322496,-0.0104282508672,-9.8327468895872,359.9624712644189,359.38962806084714,138.0018696900764,0.001422,0.001422,0.01098,0.35835,0.004855,-0.002214,0.933572,0.001422,0.001422,0.01098,2.152632,0.0,0.0,0.008597,0.0,0.0,0.006726,0.0,0.0,0.0,-1.1492661477160766
2023-09-08 15:42:53.145,-0.0131579997952,0.0288359983488,-0.0200547473152,0.086588249152,0.086595249152,0.0702764995328,48.359249,-4.557295,48.5548409986432,50.787003,0.5911028724224,0.590257122432,0.5832184978304,-0.0759121340672,-0.0087855053695999,-9.832742992256,0.0055138707712,0.005832497664,-0.0076392493824,33.6194096254336,-0.0759700055808,-0.0089330009472,-9.8326619909888,0.0056537457407999,0.0059534976512,-0.0076528744576,-0.3686,-0.29462,0.8109,-0.081661,-0.010767,-9.838445,359.9708149409507,359.40015613338073,137.9911625686902,0.0014238749952,0.0014238749952,0.0109837499903999,0.3584362497791999,0.0047950001536,-0.002114000256,0.9335395000832,0.0014238749952,0.0014238749952,0.0109837499903999,2.152632,0.0,0.0,0.00866749981952,0.0,0.0,0.00566125272576,0.0,0.0,0.0,-1.1599732691022666
2023-09-08 15:42:53.160,-0.013206,0.029223,-0.020684,0.086787,0.086794,0.070386,48.359249,-4.557295,48.555159,50.787003,0.591707,0.590859,0.583727,-0.073787,-0.007527,-9.834558,0.006505,0.00638,-0.007784,33.619308,-0.074662,-0.008711,-9.834774,0.006652,0.006504,-0.00778,-0.3660458641024,-0.288916225664,0.81525001856,-0.0775142323072,-0.009544494784,-9.8376072464256,359.9758211810455,359.40647302002395,137.98473825200202,0.001425,0.001425,0.010986,0.358488,0.004759,-0.002054,0.93352,0.001425,0.001425,0.010986,2.152632,0.0,0.0,0.0087098,0.0,0.0,0.0050224,0.0,0.0,0.0,-1.1663975857904632
2023-09-08 15:42:53.185,-0.013102875264,0.0297867485568,-0.0219146218496,0.0871188741504,0.0871258741504,0.070567249536,48.359249,-4.557295,48.5558639981952,50.787003,0.592725747392,0.5918733724031999,0.5845801228159999,-0.0772488661376,-0.0108563664768,-9.834445500288,0.00753624736,0.0069906234368,-0.0076115004416,33.6193248749568,-0.0775726175488,-0.010951619264,-9.83572712256,0.0077007473152,0.007088373504,-0.0076443753472,-0.361789,-0.27941,0.8225,-0.070603,-0.007507,-9.836211,359.9865283024317,359.41836186383745,137.97632295592925,0.0014268749952,0.0014268749952,0.010986,0.358556749824,0.0046958751616,-0.0019296253184,0.9334943750656,0.0014268749952,0.0014268749952,0.010986,2.152632,0.0,0.0,0.00878029981952,0.0,0.0,0.00395765272576,0.0,0.0,0.0,-1.1748128818632324
2023-09-08 15:42:53.200,-0.013041,0.030125,-0.022653,0.087318,0.087325,0.070676,48.359249,-4.557295,48.556287,50.787003,0.593337,0.592482,0.585092,-0.079326,-0.012854,-9.834378,0.008155,0.007357,-0.007508,33.619335,-0.079319,-0.012296,-9.836299,0.00833,0.007439,-0.007563,-0.362100251328,-0.2816926347392,0.8149377177344,-0.0732482612864,-0.0103322620544,-9.8348752443008,359.9929526191199,359.42549521882233,137.97127374381645,0.001428,0.001428,0.010986,0.358598,0.004658,-0.001855,0.933479,0.001428,0.001428,0.010986,2.152632,0.0,0.0,0.0088226,0.0,0.0,0.0033188,0.0,0.0,0.0,-1.179862093976027
2023-09-08 15:42:53.220,-0.012879,0.029815,-0.0235855,0.0863965,0.0864035,0.070185,48.359249,-4.557295,48.5560335,50.7875025,0.5923835,0.591532,0.5845419999999999,-0.0798905,-0.0114955,-9.838251,0.00855,0.0078975,-0.0074245,33.6191405,-0.080523,-0.0121395,-9.8381715,0.0085415,0.00794,-0.007415,-0.362515251328,-0.2847361347392,0.8048547177344,-0.0767752612864,-0.0140992620544,-9.8330942443008,180.00220588751125,359.4363814169298,137.964856616511,0.0014225,0.0014225,0.0109815,0.35865,0.004598,-0.001746,0.9334595,0.0014225,0.0014225,0.0109815,2.152632,0.0,0.0,0.008879,0.0,0.0,0.002467,0.0,0.0,0.0,-1.1862792212814668
2023-09-08 15:42:53.225,-0.0128385005184,0.029737500992,-0.023818622016,0.0861661279488,0.0861731279488,0.0700622515712,48.359249,-4.557295,48.5559701258112,50.7876273734016,0.5921451280512,0.59129450304,0.5844045017599999,-0.0800316231936,-0.0111558793472,-9.8392192376064,0.008648748736,0.0080326232704,-0.0074036252672,33.6190918756224,-0.0808239961472,-0.0121003755008,-9.838639619008,0.0085943743232,0.0080652483968,-0.0073780004736,-0.362619,-0.285497,0.802334,-0.077657,-0.015041,-9.832649,135.00509517499864,359.4391029316208,137.9632523552194,0.0014211250176,0.0014211250176,0.0109803750144,0.3586629998336,0.004583000192,-0.0017187503488,0.9334546250624,0.0014211250176,0.0014211250176,0.0109803750144,2.152632,0.0,0.0,0.0088556336324266,0.0,0.0,0.00224285286912,0.0,0.0,0.0,-1.1878834825730848
2023-09-08 15:42:53.240,-0.012717,0.029505,-0.024518,0.085475,0.085482,0.069694,48.359249,-4.557295,48.55578,50.788002,0.59143,0.590582,0.583992,-0.080455,-0.010137,-9.842124,0.008945,0.008438,-0.007341,33.618946,-0.081727,-0.011983,-9.840044,0.008753,0.008441,-0.007267,-0.3636660044672,-0.2901406448128,0.805440888256,-0.0756852415872,-0.0174556353023999,-9.8397785304192,0.0114591559026164,359.4472676150373,137.9584394892055,0.001417,0.001417,0.010977,0.358702,0.004538,-0.001637,0.93344,0.001417,0.001417,0.010977,2.152632,0.0,0.0,0.0087855333333333,0.0,0.0,0.0015704,0.0,0.0,0.0,-1.192696348586992
2023-09-08 15:42:53.265,-0.0125976253056,0.0299631238272,-0.0258579965696,0.085806249152,0.0858126241536,0.0698758745344,48.359249,-4.557295,48.5565806229504,50.788002,0.5924231224576,0.5915707474688,0.5848313728512,-0.0780525061503999,-0.0157794855552,-9.8433739968,0.0085931259008,0.0089742486272,-0.0068978761344,33.6190534997248,-0.0777057602944,-0.0163461138304,-9.8434089913856,0.0086180003456,0.0091422482048,-0.0068026261888,-0.365411,-0.29788,0.810619,-0.072399,-0.02148,-9.851661,0.0224527554530021,359.4622002893452,137.9515282034947,0.0014188749952,0.0014188749952,0.010977,0.358758249856,0.0044511252224,-0.0015007503487999,0.9334187500544,0.0014188749952,0.0014188749952,0.010977,2.152632,0.0,0.0,0.0086687002990933,0.0,0.0,0.0004496528691199,0.0,0.0,0.0,-1.1996076342977915
2023-09-08 15:42:53.280,-0.012526,0.030238,-0.026662,0.086005,0.086011,0.069985,48.359249,-4.557295,48.557061,50.788002,0.593019,0.592164,0.585335,-0.076611,-0.019165,-9.844124,0.008382,0.009296,-0.006632,33.619118,-0.075293,-0.018964,-9.845428,0.008537,0.009563,-0.006524,-0.3675526341376,-0.2943096097663999,0.8168774017024,-0.0759588901888,-0.0228363807872,-9.8474489820288,0.0290489602131327,359.47115995509427,137.9473814037595,0.00142,0.00142,0.010977,0.358792,0.004399,-0.001419,0.933406,0.00142,0.00142,0.010977,2.152632,0.0,0.0,0.0085986,0.0,0.0,-0.0002228,0.0,0.0,0.0,-1.203754434032987
2023-09-08 15:42:53.305,-0.01225187570176,0.0301892501248,-0.02773874724352,0.0859915000345599,0.0859978750336,0.0699550000768,48.359249,-4.557295,48.55524387965184,50.78787712531968,0.5907311308569599,0.58988563083264,0.58317363053312,-0.0769122492288,-0.0205487464576,-9.8425296290816,0.0072676278528,0.0093784997888,-0.0064895003648,33.6192011247872,-0.0760654980224,-0.02110461952,-9.843074881024,0.0070795037312,0.009263000768,-0.006511500032,-0.371122,-0.288359,0.827308,-0.081892,-0.025097,-9.840429,0.0366764413344101,359.4854122437622,137.9398971617203,0.0014218749952,0.0014218749952,0.0109763750016,0.3588526248448,0.0043065002368,-0.001312750272,0.9333835000576,0.0014218749952,0.0014218749952,0.0109763750016,2.152632,0.0,0.0,0.00848176696576,0.0,0.0,-0.00134354713088,0.0,0.0,0.0,-1.2112386760721847
2023-09-08 15:42:53.320,-0.0120874,0.03016,-0.0283848,0.0859834,0.08599,0.069937,48.359249,-4.557295,48.5541536,50.7878022,0.5893584,0.5885186,0.5818768000000001,-0.077093,-0.021379,-9.841573,0.006599,0.009428,-0.006404,33.619251,-0.076529,-0.022389,-9.841663,0.006205,0.009083,-0.006504,-0.37092122414336,-0.28859682601472,0.82638032104192,-0.08199272542976,-0.02387366978048,-9.84081735165696,0.0412529612494192,359.49396367534047,137.93540658584124,0.001423,0.001423,0.010976,0.358889,0.004251,-0.001249,0.93337,0.001423,0.001423,0.010976,2.152632,0.0,0.0,0.0084116666666666,0.0,0.0,-0.002016,0.0,0.0,0.0,-1.2157292519512453
2023-09-08 15:42:53.480,-0.010333,0.029848,-0.035276,0.085897,0.085906,0.069745,48.359249,-4.557295,48.542524,50.787003,0.574716,0.573937,0.568044,-0.0821522,-0.0140637999999999,-9.8502146,-0.0003297999999999,0.0037431999999999,-0.0046616,33.6183662,-0.0832554,-0.0131506,-9.8498702,-0.0005222,0.0034854,-0.0045912,-0.36877962414336,-0.29113362601472,0.81648512104192,-0.08306712542976,-0.01082486978048,-9.84495975165696,0.0391444765633377,359.55442218188267,137.8988747968237,0.0014246,0.0014246,0.0109719999999999,0.3591874,0.0037518,-0.0010777999999999,0.9332572,0.0014246,0.0014246,0.0109719999999999,2.152632,0.0,0.0,0.0076639333333333,0.0,0.0,-0.0091888,0.0,0.0,0.0,-1.25226104096879
2023-09-08 15:42:53.505,-0.0099842508928,0.0294911259136,-0.0362341225472,0.0862301241472,0.0862391241472,0.0699274995328,48.359249,-4.557295,48.5435133724672,50.787003,0.575697247488,0.574915122496,0.5688696228864,-0.08294269797632,-0.01292080292608,-9.85156484654336,-0.0014124222284799,0.0028549522739199,-0.00438935069696,33.61822795035392,-0.0843063973094399,-0.0117071036953599,-9.85115257171712,-0.00157332230912,0.00261077723904,-0.00429232576512,-0.368445,-0.29153,0.814939,-0.083235,-0.008786,-9.845607,0.0388150266745314,359.56386879934644,137.89316671940242,0.00142484999936,0.00142484999936,0.0109713750016,0.35923402488064,0.00367380019968,-0.0010510500684799,0.93323957504512,0.00142484999936,0.00142484999936,0.0109713750016,2.152632,0.0,0.0,0.0075471002990933,0.0,0.0,-0.01030954713088,0.0,0.0,0.0,-1.257969118390065
2023-09-08 15:42:53.520,-0.009775,0.029277,-0.036809,0.08643,0.086439,0.070037,48.359249,-4.557295,48.544107,50.787003,0.576286,0.575502,0.569365,-0.083417,-0.012235,-9.852375,-0.002062,0.002322,-0.004226,33.618145,-0.084937,-0.010841,-9.851922,-0.002204,0.002086,-0.004113,-0.3686422508416,-0.2903277448704,0.8104101056767999,-0.077473100416,-0.0118051378816,-9.8468152551552,0.0386173553918174,359.5695368085182,137.8897418495693,0.001425,0.001425,0.010971,0.359262,0.003627,-0.001035,0.933229,0.001425,0.001425,0.010971,2.152632,0.0,0.0,0.007477,0.0,0.0,-0.010982,0.0,0.0,0.0,-1.2613939882231762
2023-09-08 15:42:53.545,-0.0095106256768,0.0290745005184,-0.0376364978816,0.0867631241472,0.0867727491456,0.0702201245312,48.359249,-4.557295,48.5449988727168,50.787003,0.577279747456,0.5764913724672,0.5701987478656,-0.0801007584896,-0.0114312520576,-9.8522275003776,-0.0021719997184,0.0010895031552,-0.0042591249151999,33.6178425007744,-0.0802195120768,-0.0113834986112,-9.8524638736128,-0.0022033750016,0.0011197524736,-0.004178624832,-0.368971,-0.288324,0.802862,-0.06787,-0.016837,-9.848829,0.0341769438470361,359.5715421556675,137.88415552536782,0.0014268749952,0.0014268749952,0.0109747499904,0.3593076248832,0.0035963750784,-0.0010649999232,0.9332115000448,0.0014268749952,0.0014268749952,0.0109747499904,2.152632,0.0,0.0,0.00720850068736,0.0,0.0,-0.01160924839424,0.0,0.0,0.0,-1.266980312424664
2023-09-08 15:42:53.560,-0.009352,0.028953,-0.038133,0.086963,0.086973,0.07033,48.359249,-4.557295,48.545534,50.787003,0.577876,0.577085,0.570699,-0.078111,-0.010949,-9.852139,-0.002238,0.00035,-0.004279,33.617661,-0.077389,-0.011709,-9.852789,-0.002203,0.00054,-0.004218,-0.369025375232,-0.2906512599296,0.80134324352,-0.0752241563776,-0.0142348638976,-9.8509916342272,0.0315126787321952,359.57274537217097,137.88080370796527,0.001428,0.001428,0.010977,0.359335,0.003578,-0.001083,0.933201,0.001428,0.001428,0.010977,2.152632,0.0,0.0,0.0070474,0.0,0.0,-0.0119856,0.0,0.0,0.0,-1.27033212982721
2023-09-08 15:42:53.585,-0.0088495012864,0.028840500288,-0.0388061232768,0.087297374144,0.0873067491456,0.0705106245376,48.359249,-4.557295,48.5465827473152,50.787003,0.578882247424,0.5780868724352,0.5715383728512,-0.0804947438976,-0.0142233666176,-9.8498958807424,-0.0015217518336,-0.000234373504,-0.00446649952,33.6178228745856,-0.0801614929024,-0.0142752434304,-9.8501708817024,-0.0014536269184,-0.0002481229824,-0.0045536241408,-0.369116,-0.29453,0.798812,-0.087481,-0.009898,-9.854596,0.0287911361724906,359.5729602307941,137.8763632964205,0.0014292499968,0.0014292499968,0.010977,0.3593718749056,0.0035680000256,-0.001104874944,0.9331872500352,0.0014292499968,0.0014292499968,0.010977,2.152632,0.0,0.0,0.00677890068736,0.0,0.0,-0.01261284839424,0.0,0.0,0.0,-1.2747725413719877
2023-09-08 15:42:53.600,-0.008548,0.028773,-0.03921,0.087498,0.087507,0.070619,48.359249,-4.557295,48.547212,50.787003,0.579486,0.578688,0.572042,-0.081925,-0.016188,-9.84855,-0.001092,-0.000585,-0.004579,33.61792,-0.081825,-0.015815,-9.8486,-0.001004,-0.000721,-0.004755,-0.3687304983552,-0.2957633802624,0.8078724136576,-0.0868404972672,-0.0109772546048,-9.8510226097536,0.027158199489201,359.573089146848,137.87369903130565,0.00143,0.00143,0.010977,0.359394,0.003562,-0.001118,0.933179,0.00143,0.00143,0.010977,2.152632,0.0,0.0,0.0066178,0.0,0.0,-0.0129892,0.0,0.0,0.0,-1.2774368064868329
2023-09-08 15:42:53.620,-0.008702,0.0286865,-0.0393465,0.086812,0.086821,0.0702595,48.359249,-4.557295,48.546373,50.7875025,0.5789454999999999,0.578149,0.5717845,-0.082438,-0.013441,-9.846711,-0.0004835,-0.0011805,-0.0046125,33.6173995,-0.0823685,-0.0130214999999999,-9.846047,-0.0004094999999999,-0.0013054999999999,-0.004673,-0.3682164983552,-0.2974078802624,0.8199529136575999,-0.0859864972672,-0.0124162546048,-9.8462581097536,0.0264992980248005,359.5716567523602,137.87000345352703,0.001426,0.001426,0.0109735,0.3594239999999999,0.0035715,-0.001128,0.933167,0.001426,0.001426,0.0109735,2.152632,0.0,0.0,0.006403,0.0,0.0,-0.013491,0.0,0.0,0.0,-1.2811323842654474
2023-09-08 15:42:53.625,-0.0087404995072,0.0286648752768,-0.0393806245632,0.0866405021952,0.0866495021952,0.0701696261504,48.359249,-4.557295,48.546163252684806,50.7876273734016,0.5788103767295999,0.5780142517247999,0.571720125824,-0.0825662483584,-0.0127542587904,-9.8462512558848,-0.0003313769471999,-0.0013293730944,-0.0046208748928,33.6172693766656,-0.0825043732608,-0.0123231339391999,-9.8454087581696,-0.0002608769023999,-0.0014516231296,-0.0046525002624,-0.368088,-0.297819,0.822973,-0.085773,-0.012776,-9.845067,0.0263345747671851,359.5712986583219,137.86907957090824,0.0014250000128,0.0014250000128,0.0109726250112,0.359431499904,0.0035738749696,-0.001130499968,0.9331640000384,0.0014250000128,0.0014250000128,0.0109726250112,2.152632,0.0,0.0,0.00633380088576,0.0,0.0,-0.0135762989081599,0.0,0.0,0.0,-1.28205626688424
2023-09-08 15:42:53.640,-0.008856,0.0286,-0.039483,0.086126,0.086135,0.0699,48.359249,-4.557295,48.545534,50.788002,0.578405,0.57761,0.571527,-0.082951,-0.010694,-9.844872,0.000125,-0.001776,-0.004646,33.616879,-0.082912,-0.010228,-9.843494,0.000185,-0.00189,-0.004591,-0.3669599951872,-0.2978617501824,0.8213604931199999,-0.0843434939008,-0.0113277438207999,-9.837945719616,0.0258403965604001,359.57022435787235,137.86630787574845,0.001422,0.001422,0.01097,0.359454,0.003581,-0.001138,0.933155,0.001422,0.001422,0.01097,2.152632,0.0,0.0,0.0061262,0.0,0.0,-0.0138322,0.0,0.0,0.0,-1.2848279620440335
2023-09-08 15:42:53.665,-0.0083766262272,0.0285631250944,-0.0398792489856,0.0864591241472,0.0864681241472,0.0700818745344,48.359249,-4.557295,48.54661212224,50.788002,0.579395622464,0.5785968724735999,0.5723594978688,-0.0810872547712,-0.0112664985344,-9.8380763923968,0.0014324966528,-0.0017235001344,-0.0050228740352,33.6167140004224,-0.0809001301504,-0.0113517471232,-9.8371871411456,0.0016149963392,-0.0018012502272,-0.0049797490047999,-0.36508,-0.297933,0.818673,-0.081961,-0.008914,-9.826077,0.0280964121033131,359.5689352061336,137.86072155154696,0.0014238749952,0.0014238749952,0.01097,0.3594989998848,0.0035984999552,-0.0011236250368,0.9331375000448,0.0014238749952,0.0014238749952,0.01097,2.152632,0.0,0.0,0.00578020088576,0.0,0.0,-0.01425869890816,0.0,0.0,0.0,-1.2904142862455217
2023-09-08 15:42:53.680,-0.008089,0.028541,-0.040117,0.086659,0.086668,0.070191,48.359249,-4.557295,48.547259,50.788002,0.57999,0.579189,0.572859,-0.079969,-0.01161,-9.833999,0.002217,-0.001692,-0.005249,33.616615,-0.079693,-0.012026,-9.833403,0.002473,-0.001748,-0.005213,-0.3662732550912,-0.297878624768,0.818774250432,-0.0805974941824,-0.0112337598976,-9.824672619008,0.0294500306697243,359.5681617098099,137.8573697341444,0.001425,0.001425,0.01097,0.359526,0.003609,-0.001115,0.933127,0.001425,0.001425,0.01097,2.152632,0.0,0.0,0.0055726,0.0,0.0,-0.0145146,0.0,0.0,0.0,-1.2937661036480677
2023-09-08 15:42:53.705,-0.0076427511424,0.028487875136,-0.0403869993088,0.0869927491456,0.0870017491456,0.070372249536,48.359249,-4.557295,48.5483458722176,50.788002,0.580993122432,0.5801877474432,0.5736983728512,-0.0799665000064,-0.0123843730176,-9.8281558899584,0.0031257476736,-0.0019126244351999,-0.0054933743744,33.6163031257984,-0.079564875328,-0.0126591233792,-9.827087391168,0.0032773729408,-0.0018804996607999,-0.0055854990464,-0.368262,-0.297788,0.818943,-0.078325,-0.0151,-9.822332,0.0335681542798036,359.5665860799069,137.8507807363683,0.0014268749952,0.0014268749952,0.01097,0.3595797498624,0.0036346249344,-0.0010862500736,0.9331063750528,0.0014268749952,0.0014268749952,0.01097,2.152632,0.0,0.0,0.00522660088576,0.0,0.0,-0.01494109890816,0.0,0.0,0.0,-1.3003551014241737
2023-09-08 15:42:53.720,-0.007375,0.028456,-0.040549,0.087193,0.087202,0.070481,48.359249,-4.557295,48.548998,50.788002,0.581595,0.580787,0.574202,-0.079965,-0.012849,-9.82465,0.003671,-0.002045,-0.00564,33.616116,-0.079488,-0.013039,-9.823298,0.00376,-0.00196,-0.005809,-0.3647523600256,-0.2967702456576,0.8171321172736,-0.0797470060672,-0.015846253184,-9.8283219005568,0.0360390453137287,359.5656406955113,137.84682731071402,0.001428,0.001428,0.01097,0.359612,0.00365,-0.001069,0.933094,0.001428,0.001428,0.01097,2.152632,0.0,0.0,0.005019,0.0,0.0,-0.015197,0.0,0.0,0.0,-1.3043085270784616
2023-09-08 15:42:53.745,-0.0070375008639999,0.0284447500288,-0.0408496242304,0.0875261241472,0.0875351241472,0.0706628745344,48.359249,-4.557295,48.5500254973696,50.788002,0.5826099974016,0.5817982474112,0.5750494978304,-0.076458758976,-0.0114215036543999,-9.8224212557056,0.0047947471232,-0.0013443767936,-0.0060062490624,33.616728498432,-0.0769792564224,-0.0114708790144,-9.82176675392,0.0048668721664,-0.0013150016511999,-0.0060439993984,-0.358903,-0.295074,0.814114,-0.082117,-0.01709,-9.838305,0.0426996626309005,359.56553326619974,137.83844782441176,0.0014298749952,0.0014298749952,0.0109737499904,0.3596801248256,0.003671874944,-0.001015875136,0.9330677500672,0.0014298749952,0.0014298749952,0.0109737499904,2.152632,0.0,0.0,0.00460475106048,0.0,0.0,-0.0153632495744,0.0,0.0,0.0,-1.312688013380722
2023-09-08 15:42:53.760,-0.006835,0.028438,-0.04103,0.087726,0.087735,0.070772,48.359249,-4.557295,48.550642,50.788002,0.583219,0.582405,0.575558,-0.074355,-0.010565,-9.821084,0.005469,-0.000924,-0.006226,33.617096,-0.075474,-0.01053,-9.820848,0.005531,-0.000928,-0.006185,-0.3602181306112,-0.2961675046656,0.8111901125248,-0.0786336101376,-0.0175358769024,-9.8264241993088,0.046696060303162,359.5654688081728,137.83342009830795,0.001431,0.001431,0.010976,0.359721,0.003685,-0.000984,0.933052,0.001431,0.001431,0.010976,2.152632,0.0,0.0,0.0043562,0.0,0.0,-0.015463,0.0,0.0,0.0,-1.3177157394845267
2023-09-08 15:42:53.785,-0.0064112510848,0.0283717501696,-0.0411724996352,0.0880597491456,0.0880687491455999,0.0709519995392,48.359249,-4.557295,48.55177824709121,50.788002,0.5842458723712,0.5834281223808,0.5764111228159999,-0.077870616,-0.0104131253888,-9.8148108910592,0.0060446235264,0.000222872064,-0.0066584988927999,33.6174728740352,-0.0777783691008,-0.0113212479744,-9.8148673903104,0.0061409984384,0.0003019968512,-0.0067018736768,-0.36241,-0.29799,0.806317,-0.072828,-0.018279,-9.806623,0.0547532586707086,359.5681903507325,137.82500480223518,0.0014328749951999,0.0014328749951999,0.010976,0.3597891248256,0.003688124992,-0.0009096251904,0.9330257500672,0.0014328749951999,0.0014328749951999,0.010976,2.152632,0.0,0.0,0.00394195106048,0.0,0.0,-0.0156292495744,0.0,0.0,0.0,-1.326131035557296
2023-09-08 15:42:53.800,-0.006157,0.028332,-0.041258,0.08826,0.088269,0.07106,48.359249,-4.557295,48.55246,50.788002,0.584862,0.584042,0.576923,-0.07998,-0.010322,-9.811047,0.00639,0.000911,-0.006918,33.617699,-0.079161,-0.011796,-9.811279,0.006507,0.00104,-0.007012,-0.3658607647232,-0.2966827444224,0.8096477642112,-0.0754016359808,-0.0158343645696,-9.7992028433408,0.0595876106936056,359.5698232874158,137.8199555901224,0.001434,0.001434,0.010976,0.35983,0.00369,-0.000865,0.93301,0.001434,0.001434,0.010976,2.152632,0.0,0.0,0.0036934,0.0,0.0,-0.015729,0.0,0.0,0.0,-1.3311802476700905
2023-09-08 15:42:53.820,-0.005864,0.0278414999999999,-0.040903,0.087452,0.0874605,0.0706385,48.359249,-4.557295,48.551905000000005,50.7875025,0.584128,0.58331,0.5765404999999999,-0.079482,-0.011769,-9.8085715,0.0066584999999999,0.0015624999999999,-0.007149,33.618193000000005,-0.079544,-0.0121345,-9.8079885,0.006673,0.0017945,-0.0073215,-0.3704617647232,-0.2949397444224,0.8140887642112,-0.0788331359808,-0.0125748645695999,-9.7893093433408,0.0666063436839581,359.57386263987144,137.81247849089593,0.0014295,0.0014295,0.0109725,0.3598905,0.003679,-0.0007955,0.932987,0.0014295,0.0014295,0.0109725,2.152632,0.0,0.0,0.003362,0.0,0.0,-0.015862,0.0,0.0,0.0,-1.3386573468965537
2023-09-08 15:42:53.825,-0.0057907509376,0.0277188765696,-0.040814251136,0.0872500025856,0.0872583775872,0.0705331263488,48.359249,-4.557295,48.551766251776,50.7873776265984,0.5839445023488,0.5831270023424,0.576444876224,-0.0793575015936,-0.0121307453696,-9.8079526329216,0.0067256241408,0.0017253729151999,-0.0072067492608,33.618316498419205,-0.0796397487744,-0.0122191239167999,-9.8071658855296,0.0067144994687999,0.0019831225856,-0.0073988740096,-0.371612,-0.294504,0.815199,-0.079691,-0.01176,-9.786836,0.0683610044716007,359.5748724650594,137.81060924001602,0.0014283750144,0.0014283750144,0.0109716250112,0.3599056248064,0.0036762500352,-0.0007781252224,0.9329812500736,0.0014283750144,0.0014283750144,0.0109716250112,2.152632,0.0,0.0,0.0032795635552,0.0,0.0,-0.015831375392,0.0,0.0,0.0,-1.34052659777646
2023-09-08 15:42:53.840,-0.005571,0.027351,-0.040548,0.086644,0.086652,0.070217,48.359249,-4.557295,48.55135,50.787003,0.583394,0.582578,0.576158,-0.078984,-0.013216,-9.806096,0.006927,0.002214,-0.00738,33.618687,-0.079927,-0.012473,-9.804698,0.006839,0.002549,-0.007631,-0.3667756043648,-0.2958990059519999,0.816299629696,-0.0698363329536,-0.0109383714943999,-9.7853157435136,0.0736250766743107,359.5779019923271,137.80500139166946,0.001425,0.001425,0.010969,0.359951,0.003668,-0.000726,0.932964,0.001425,0.001425,0.010969,2.152632,0.0,0.0,0.00303225,0.0,0.0,-0.0157395,0.0,0.0,0.0,-1.346134446123017
2023-09-08 15:42:53.865,-0.0053028756864,0.0271216255872,-0.0408411242496,0.0869764991488,0.0869844991488,0.070398249536,48.359249,-4.557295,48.5525643718912,50.787003,0.5844014974208,0.583581122432,0.5770011228416,-0.078677750784,-0.0157884934144,-9.8041122550784,0.0058501277568,0.0035658715391999,-0.0077637490176,33.6187488748416,-0.077717630656,-0.0093830079104,-9.8009717595392,0.0061883766656,0.0036077472896,-0.007637249984,-0.358715,-0.298224,0.818134,-0.053412,-0.009569,-9.782782,0.0806796014672293,359.5852071855137,137.7964070467441,0.0014262499968,0.0014262499968,0.010969,0.3600209998208,0.003630500096,-0.0006460002048,0.9329371250688,0.0014262499968,0.0014262499968,0.010969,2.152632,0.0,0.0,0.0026200635552,0.0,0.0,-0.015586375392,0.0,0.0,0.0,-1.3547287910483874
2023-09-08 15:42:53.880,-0.005142,0.026984,-0.041017,0.087176,0.087184,0.070507,48.359249,-4.557295,48.553293,50.787003,0.585006,0.584183,0.577507,-0.078494,-0.017332,-9.802922,0.005204,0.004377,-0.007994,33.618786,-0.076392,-0.007529,-9.798736,0.005798,0.004243,-0.007641,-0.3610235098496,-0.3016331395456,0.8198353822592,-0.0544290043392,-0.002068968,-9.7783524811008,0.084912345238388,359.5895903313478,137.79125040458632,0.001427,0.001427,0.010969,0.360063,0.003608,-0.000598,0.932921,0.001427,0.001427,0.010969,2.152632,0.0,0.0,0.00237275,0.0,0.0,-0.0154945,0.0,0.0,0.0,-1.3598854332061592
2023-09-08 15:42:53.905,-0.0063339500736,0.0281056377536,-0.0408648910143999,0.0873563120384,0.0873643120383999,0.070606999744,48.359249,-4.5572949218752,48.5541322166016,50.787003,0.585820060416,0.5849937010496,0.5782165294336,-0.0660384068864,-0.0106932669952,-9.7929489005312,0.0057721235456,0.0051951229056,-0.0079290001664,33.6182778763008,-0.0650114041344,-0.0138021089407999,-9.7941903866368,0.0055267506944,0.0052329974656,-0.0079328742528,-0.364871,-0.307315,0.822671,-0.056124,0.010431,-9.77097,0.0913581039324252,359.5991873498478,137.78104461998743,0.0014288749952,0.0014288749952,0.010969,0.3601461247872,0.0035498751488,-0.0005161252096,0.9328891250816,0.0014288749952,0.0014288749952,0.010969,2.152632,0.0,0.0,0.0019605635552,0.0,0.0,-0.015341375392,0.0,0.0,0.0,-1.3700912178050544
2023-09-08 15:42:53.920,-0.007049125,0.028778625,-0.040773625,0.0874645,0.0874725,0.070667,48.359249,-4.557294875,48.55463575,50.787003,0.5863085,0.585480125,0.57864225,-0.058565,-0.00671,-9.786965,0.006113,0.005686,-0.00789,33.617973,-0.058183,-0.017566,-9.791463,0.005364,0.005827,-0.008108,-0.36414747191296,-0.30594721916416,0.8229173760512001,-0.04702518617856,0.0099494979456,-9.77355166101504,0.0952255855507428,359.6049456002573,137.7749211074251,0.00143,0.00143,0.010969,0.360196,0.003515,-0.000467,0.93287,0.00143,0.00143,0.010969,2.152632,0.0,0.0,0.00171325,0.0,0.0,-0.0152495,0.0,0.0,0.0,-1.3762147303673942
2023-09-08 15:42:54.105,-0.0158695750736,0.0370787627536,-0.0396480160144,0.0887988120384,0.0888068120384,0.071406999744,48.359249,-4.5572942968752,48.5608459666016,50.787003,0.592332560416,0.5914793260496,0.5838927794336,0.0310498939980799,-0.0180301460838399,-9.80179181987072,-0.0051645960985599,0.0082667491072,-0.0068540003584,33.62019947422976,0.03078901922048,-0.01726815010304,-9.80098957170432,-0.0047268215091199,0.00818204918528,-0.00686757542912,-0.355224,-0.289078,0.825956,0.065193,0.004011,-9.805392,0.0699452639807108,359.70336395907395,137.70596995781796,0.00143277499904,0.00143277499904,0.0109671500006399,0.3607593248051199,0.00263440030464,-0.00036432503552,0.93265540007424,0.00143277499904,0.00143277499904,0.0109671500006399,2.152632,0.0,0.0,-0.0013369364448,0.0,0.0,-0.014116375392,0.0,0.0,0.0,-1.4451658799745246
2023-09-08 15:42:54.120,-0.01658475,0.03775175,-0.03955675,0.088907,0.088915,0.071467,48.359249,-4.55729425,48.5613495,50.787003,0.592821,0.59196575,0.5843185,0.038316,-0.018948,-9.802994,-0.006079,0.008476,-0.00677,33.62038,0.038003,-0.017244,-9.801762,-0.005545,0.008373,-0.006767,-0.3559462530816,-0.2890299997952,0.8229854248256,0.082319323072,-0.0008975834432,-9.7980170310336,0.0678954987230025,359.71134386281307,137.7003792982786,0.001433,0.001433,0.010967,0.360805,0.002563,-0.000356,0.932638,0.001433,0.001433,0.010967,2.152632,0.0,0.0,-0.00158425,0.0,0.0,-0.0140245,0.0,0.0,0.0,-1.4507565395138895
2023-09-08 15:42:54.185,-0.0196838250736,0.0406680127536,-0.0391612660144,0.0893758120383999,0.0893838120384,0.071726999744,48.359249,-4.5572940468752,48.5635314666016,50.787003,0.594937560416,0.5940735760496,0.5861632794336,0.1174664220672,-0.0175228764032,-9.7772101503872,-0.0051373134272,0.0066893142592,-0.0058218134336,33.6214622489344,0.119626669632,-0.0135771911103999,-9.7767906495872,-0.0050201255168,0.0065749392703999,-0.0058334384192,-0.359076,-0.288822,0.810113,0.156533,-0.022168,-9.766059,0.0440139251388938,359.7405324527492,137.68455135477254,0.0014378749952,0.0014378749952,0.0109718749952,0.360934999872,0.002250187808,-0.0004591873983999,0.9325884375488,0.0014378749952,0.0014378749952,0.0109718749952,2.152632,0.0,0.0,-0.0026559364448,0.0,0.0,-0.013626375392,0.0,0.0,0.0,-1.4665844830199433
2023-09-08 15:42:54.200,-0.020399,0.041341,-0.03907,0.089484,0.089492,0.071787,48.359249,-4.557294,48.564035,50.787003,0.595426,0.59456,0.586589,0.135732,-0.017194,-9.77126,-0.00492,0.006277,-0.005603,33.621712,0.138463,-0.012731,-9.771028,-0.004899,0.00616,-0.005618,-0.3589488744576,-0.2888433750912,0.8131343878912,0.1718289402624,-0.0110732026624,-9.810639190208,0.0385027638327913,359.7472683165678,137.6808987332441,0.001439,0.001439,0.010973,0.360965,0.002178,-0.000483,0.932577,0.001439,0.001439,0.010973,2.152632,0.0,0.0,-0.00290325,0.0,0.0,-0.0135345,0.0,0.0,0.0,-1.4702371045483744
2023-09-08 15:42:54.220,-0.023577,0.04389,-0.0376015,0.0887334999999999,0.088741,0.0714005,48.359249,-4.557294,48.5631705,50.787003,0.5947344999999999,0.5938705,0.5862525000000001,0.1568295,-0.0178615,-9.7774725,-0.0035909999999999,0.0059469999999999,-0.005383,33.6215515,0.156806,-0.0161485,-9.763868,-0.003251,0.005868,-0.0053919999999999,-0.3587793744576,-0.2888718750912,0.8171628878912,0.1922234402624,0.0037197973376,-9.870079190208,0.0358385100854329,359.754659472125,137.67674478922942,0.0014345,0.0014345,0.010969,0.3609989999999999,0.0021095,-0.0004815,0.932564,0.0014345,0.0014345,0.010969,2.152632,0.0,0.0,-0.003233,0.0,0.0,-0.013412,0.0,0.0,0.0,-1.4743910485630636
2023-09-08 15:42:54.225,-0.0243714898304,0.0445272418432,-0.0372343796992,0.0885458774016,0.0885532524032,0.0713038762368,48.359249,-4.557294,48.5629543777664,50.787003,0.5945616272128,0.5936981272063999,0.5861683760768001,0.162103807488,-0.018028372864,-9.77902560512,-0.0032587542527999,0.0058645010559999,-0.005328000704,33.621511375513606,0.1613916913024,-0.017002864064,-9.762078022912,-0.0028390052736,0.0057950009344,-0.0053355007232,-0.358737,-0.288879,0.81817,0.197322,0.007418,-9.884939,0.0351724551742053,359.7565072373626,137.67570631651836,0.0014333750144,0.0014333750144,0.0109680000128,0.3610074998912,0.0020923752191999,-0.0004811250048,0.9325607500416,0.0014333750144,0.0014333750144,0.0109680000128,2.152632,0.0,0.0,-0.0032560330385066,0.0,0.0,-0.0131789196501333,0.0,0.0,0.0,-1.4754295212741226
2023-09-08 15:42:54.240,-0.026755,0.046439,-0.036133,0.087983,0.08799,0.071014,48.359249,-4.557294,48.562306,50.787003,0.594043,0.593181,0.585916,0.177927,-0.018529,-9.783685,-0.002262,0.005617,-0.005163,33.621391,0.175149,-0.019566,-9.756708,-0.001603,0.005576,-0.005166,-0.3660667812736,-0.292030888448,0.8142347332095999,0.2028915237632,0.0066889968896,-9.8383964264192,0.0331742563380746,359.7620506276822,137.67259084521473,0.00143,0.00143,0.010965,0.361033,0.002041,-0.00048,0.932551,0.00143,0.00143,0.010965,2.152632,0.0,0.0,-0.0033251333333333,0.0,0.0,-0.0124796666666666,0.0,0.0,0.0,-1.4785449925777527
2023-09-08 15:42:54.265,-0.031064363968,0.0512908625792,-0.0355861264,0.0883148741504,0.0883218741504,0.0711933745408,48.359249,-4.557294,48.5632959974656,50.787003,0.5950886223232,0.5942222473344,0.5867841227776,0.2045875567488,-0.025460232256,-9.7633544270464,-6.888061439999996e-05,0.0053663756416,-0.0052492497792,33.6216322493824,0.208233290304,-0.0305072219904,-9.7810991875584,0.0002838701695999,0.0051810010111999,-0.0053359995648,-0.378283,-0.297284,0.807676,0.212174,0.005474,-9.760826,0.0339262615190456,359.77035849444337,137.66678966239007,0.0014318749952,0.0014318749952,0.010965,0.36107987488,0.001975375168,-0.0004475000832,0.9325328750464,0.0014318749952,0.0014318749952,0.010965,2.152632,0.0,0.0,-0.0034402997051733,0.0,0.0,-0.0113142529834666,0.0,0.0,0.0,-1.4843461754024077
2023-09-08 15:42:54.280,-0.03365,0.054202,-0.035258,0.088514,0.088521,0.071301,48.359249,-4.557294,48.56389,50.787003,0.595716,0.594847,0.587305,0.220584,-0.029619,-9.751156,0.001247,0.005216,-0.005301,33.621777,0.228084,-0.037072,-9.795734,0.001416,0.004944,-0.005438,-0.364010439104,-0.2897460928384,0.8064861199232,0.2248700541696,-0.0108805697792,-9.7574626106496,0.0343774677078493,359.7753432485292,137.6633089289336,0.001433,0.001433,0.010965,0.361108,0.001936,-0.000428,0.932522,0.001433,0.001433,0.010965,2.152632,0.0,0.0,-0.0035094,0.0,0.0,-0.010615,0.0,0.0,0.0,-1.4878269088588922
2023-09-08 15:42:54.305,-0.0385342583296,0.05828532288,-0.03394550336,0.0885539998976,0.0885613123968,0.0713024583296,48.359249,-4.557294,48.5620640671744,50.7871070622336,0.5939779836160001,0.5931164835968,0.5855825044095999,0.2294033524223999,-0.0323146180992,-9.7653647136256,0.003921993152,0.0046178765312,-0.0053366249088,33.6215976254592,0.2310571173888,-0.0289226458624,-9.7577522222336,0.004147243008,0.0045296260608,-0.0052798754048,-0.340223,-0.277183,0.804503,0.24603,-0.038138,-9.751857,0.041360372959723,359.78272006125684,137.65833137083098,0.0014348749952,0.0014348749952,0.010965,0.361148624896,0.001898500096,-0.0003480002048,0.93250637504,0.0014348749952,0.0014348749952,0.010965,2.152632,0.0,0.0,-0.00362456637184,0.0,0.0,-0.0094495863167999,0.0,0.0,0.0,-1.492804466961502
2023-09-08 15:42:54.320,-0.0414648333333333,0.0607353333333333,-0.033158,0.0885779999999999,0.0885855,0.0713033333333333,48.359249,-4.557294,48.5609685,50.7871695,0.5929351666666667,0.5920781666666667,0.584549,0.234695,-0.033932,-9.77389,0.005527,0.004259,-0.005358,33.62149,0.232841,-0.024033,-9.734963,0.005786,0.004281,-0.005185,-0.3428172610688,-0.27777047750656,0.80532815352064,0.24678052820224,-0.0370741204608,-9.75618796847872,0.0455501447129004,359.7871461791089,137.6553448155813,0.001436,0.001436,0.010965,0.361173,0.001876,-0.0003,0.932497,0.001436,0.001436,0.010965,2.152632,0.0,0.0,-0.0036936666666666,0.0,0.0,-0.0087503333333333,0.0,0.0,0.0,-1.4957910222111934
2023-09-08 15:42:54.505,-0.0776084249962666,0.0909519895466666,-0.02344550336,0.0888739998976,0.0888838123968,0.0713141249962666,48.359249,-4.557294,48.5474565671744,50.7879395622336,0.5800738169493334,0.5792723169301334,0.5718025044096,0.23730719909632,-0.0071162592768,-9.77900617323008,0.01577692145408,0.0003860263398399,-0.0085492488959999,33.62040682537472,0.23555309906176,-0.00190608265472,-9.7706032376704,0.01549757164032,0.0006365012607999,-0.00861952381184,-0.374813,-0.285016,0.815505,0.256037,-0.023953,-9.809603,0.2016309560834332,359.81820334564986,137.5912165365462,0.00143784999936,0.00143784999936,0.01096130000128,0.36169284982016,0.00211557491712,0.00106622452736,0.93229442507008,0.00143784999936,0.00143784999936,0.01096130000128,2.152632,0.0,0.0,-0.0045458997051733,0.0,0.0,-0.0001262529834666,0.0,0.0,0.0,-1.559919301246282
2023-09-08 15:42:54.520,-0.080539,0.093402,-0.022658,0.088898,0.088908,0.071315,48.359249,-4.557294,48.546361,50.788002,0.579031,0.578234,0.570769,0.237519,-0.004942,-9.779421,0.016608,7.2e-05,-0.008808,33.620319,0.235773,-0.000112,-9.773493,0.016285,0.000341,-0.008898,-0.3675278439168,-0.2876965114368,0.817908760256,0.26585266688,-0.013829831808,-9.7935776816256,0.2142862153789279,359.8207215059036,137.58601692237048,0.001438,0.001438,0.010961,0.361735,0.002135,0.001177,0.932278,0.001438,0.001438,0.010961,2.152632,0.0,0.0,-0.004615,0.0,0.0,0.000573,0.0,0.0,0.0,-1.5651189154220049
2023-09-08 15:42:54.545,-0.0859664861056,0.0972982400256,-0.0220848764672,0.0892317491456,0.0892417491456,0.0714949995392,48.359249,-4.557294,48.5468816236672,50.788002,0.5800784973184,0.5792771223295999,0.5716308727936,0.2404458675072,-0.0001238873343999,-9.7700472739968,0.0140261316096,-0.0004642486272,-0.0092836237824,33.6201071255424,0.2409548617344,-0.0017676207615999,-9.7851873450624,0.0137556314752,-0.0005921226112,-0.0093192489216,-0.355386,-0.292164,0.821915,0.282212,0.003042,-9.766869,0.2305080414255882,359.8203634081983,137.5728031170477,0.0014398749952,0.0014398749952,0.0109653749888,0.3618418747264,0.0021893748608,0.0013076246656,0.9322361251072,0.0014398749952,0.0014398749952,0.0109653749888,2.152632,0.0,0.0,-0.00450400028416,0.0,0.0,0.00163724727552,0.0,0.0,0.0,-1.5783327207447826
2023-09-08 15:42:54.560,-0.089223,0.099636,-0.021741,0.089432,0.089442,0.071603,48.359249,-4.557294,48.547194,50.788002,0.580707,0.579903,0.572148,0.242202,0.002767,-9.764423,0.012477,-0.000786,-0.009569,33.61998,0.244064,-0.002761,-9.792204,0.012238,-0.001152,-0.009572,-0.3624825302784,-0.28834835872,0.8240483841024,0.2602657813632,0.0070526421119999,-9.7628786079744,0.2402412034983541,359.8201485481084,137.56487477973013,0.001441,0.001441,0.010968,0.361906,0.002222,0.001386,0.932211,0.001441,0.001441,0.010968,2.152632,0.0,0.0,-0.0044374,0.0,0.0,0.0022758,0.0,0.0,0.0,-1.5862610580623482
2023-09-08 15:42:54.585,-0.0942867370367999,0.1035166150656,-0.0208816272,0.0897669991424,0.089776374144,0.071781124544,48.359249,-4.557294,48.5478164984064,50.788002,0.5817669972864,0.5809586222976,0.5730154977792,0.2373570124032,-0.0061561021567999,-9.7737298511744,0.0093188830848,-0.0019422470399999,-0.0103008731264,33.6206881231872,0.2367790186496,-0.0069003644032,-9.7840183959552,0.0089986332928,-0.0021201225215999,-0.0104088728576,-0.37431,-0.281989,0.827604,0.223689,0.013737,-9.756228,0.2490862168173941,359.8175344348603,137.55148192555475,0.0014422499968,0.0014422499968,0.010968,0.3620147497216,0.0022713748736,0.0014497498368,0.9321685001088,0.0014422499968,0.0014422499968,0.010968,2.152632,0.0,0.0,-0.00432640028416,0.0,0.0,0.00334004727552,0.0,0.0,0.0,-1.5996539122377271
2023-09-08 15:42:54.600,-0.097325,0.105845,-0.020366,0.089968,0.089977,0.071888,48.359249,-4.557294,48.54819,50.788002,0.582403,0.581592,0.573536,0.23445,-0.01151,-9.779314,0.007424,-0.002636,-0.01074,33.621113,0.232408,-0.009384,-9.779107,0.007055,-0.002701,-0.010911,-0.3686047256576,-0.2833810059392,0.8210478470272,0.2248638800128,0.0127323707136,-9.7733891982208,0.2543932610380855,359.815965956204,137.54344615819224,0.001443,0.001443,0.010968,0.36208,0.002301,0.001488,0.932143,0.001443,0.001443,0.010968,2.152632,0.0,0.0,-0.0042598,0.0,0.0,0.0039786,0.0,0.0,0.0,-1.6076896796002416
2023-09-08 15:42:54.620,-0.1002105,0.107717,-0.019621,0.0891315,0.0891405,0.071462,48.359249,-4.557294,48.5483345,50.788002,0.58165,0.5808409999999999,0.573167,0.2285165,-0.0064805,-9.7832385,0.004095,-0.0037064999999999,-0.0109265,33.620590500000006,0.2248725,-0.002245,-9.7789445,0.0036659999999999,-0.0036685,-0.0109775,-0.3609977256576,-0.2852370059392,0.8123063470272,0.2264303800128,0.0113928707136,-9.7962706982208,0.2536197680146589,359.81247091365367,137.53233077696672,0.0014385,0.0014385,0.010964,0.3621705,0.002327,0.0014705,0.932108,0.0014385,0.0014385,0.010964,2.152632,0.0,0.0,-0.004171,0.0,0.0,0.00483,0.0,0.0,0.0,-1.618805060825764
2023-09-08 15:42:54.625,-0.1009318657664,0.1081849940096,-0.0194347523839999,0.0889223776768,0.0889313776768,0.0713555013632,48.359249,-4.557294,48.5483706245376,50.788002,0.5814617524096,0.5806532524032,0.5730747511808001,0.2270331439872,-0.0052231410944,-9.7842196124416,0.0032627606528,-0.0039741215744,-0.0109731244032,33.620459876672,0.2229886491136,-0.0004602728448,-9.77890387552,0.0028187608448,-0.003910371904,-0.0109941247872,-0.359096,-0.285701,0.810121,0.226822,0.011058,-9.801991,0.2534263972339799,359.81159716420024,137.52955196722954,0.0014373750144,0.0014373750144,0.0109630000128,0.3621931247104,0.0023334999168,0.001466125056,0.932099250112,0.0014373750144,0.0014373750144,0.0109630000128,2.152632,0.0,0.0,-0.00410535084032,0.0,0.0,0.0050373640123733,0.0,0.0,0.0,-1.6215838705629435
2023-09-08 15:42:54.640,-0.103096,0.109589,-0.018876,0.088295,0.088304,0.071036,48.359249,-4.557294,48.548479,50.788002,0.580897,0.58009,0.572798,0.222583,-0.001451,-9.787163,0.000766,-0.004777,-0.011113,33.620068,0.217337,0.004894,-9.778782,0.000277,-0.004636,-0.011044,-0.3647858992768,-0.2889833890048,0.8166602779008,0.2264991236224,0.0290580768,-9.819017947648,0.2528462749912323,359.80897587110337,137.52121539574117,0.001434,0.001434,0.01096,0.362261,0.002353,0.001453,0.932073,0.001434,0.001434,0.01096,2.152632,0.0,0.0,-0.0039084,0.0,0.0,0.0056594666666666,0.0,0.0,0.0,-1.629920442051315
2023-09-08 15:42:54.665,-0.1079747375104,0.1134846150272,-0.0184247511552,0.0886281241472,0.0886371241472,0.0712153745408,48.359249,-4.557294,48.5489908736896,50.788002,0.5819363723391999,0.5811249973504,0.5736561228032,0.2216386274176,-0.0079003584895999,-9.7928386104704,-0.0035964888319999,-0.0064982455936,-0.011025500224,33.6203229993472,0.2217282387584,-0.0074165934848,-9.7911044684544,-0.0041492386688,-0.0066584948224,-0.010962750208,-0.374269,-0.294454,0.827559,0.225961,0.059058,-9.847396,0.241816865670324,359.79898494512764,137.50757187317214,0.0014352499968,0.0014352499968,0.01096,0.3623716247168,0.0023992498816,0.001331125312,0.9320298751104,0.0014352499968,0.0014352499968,0.01096,2.152632,0.0,0.0,-0.00358015084032,0.0,0.0,0.0066962973457066,0.0,0.0,0.0,-1.6435639646203413
2023-09-08 15:42:54.680,-0.110902,0.115822,-0.018154,0.088828,0.088837,0.071323,48.359249,-4.557294,48.549298,50.788002,0.58256,0.581746,0.574171,0.221072,-0.01177,-9.796244,-0.006214,-0.007531,-0.010973,33.620476,0.224363,-0.014803,-9.798498,-0.006805,-0.007872,-0.010914,-0.3732741207552,-0.2933053700992,0.8229288552448001,0.2143250753536,0.0212739637887999,-9.8321788100736,0.2351991749012029,359.79299034861924,137.4993857037467,0.001436,0.001436,0.01096,0.362438,0.002427,0.001258,0.932004,0.001436,0.001436,0.01096,2.152632,0.0,0.0,-0.0033832,0.0,0.0,0.0073183999999999,0.0,0.0,0.0,-1.651750134045784
2023-09-08 15:42:54.705,-0.115459800832,0.1198254272511999,-0.016903482368,0.0889458121984,0.0889548121984,0.0713902914944,48.3592488958336,-4.557294,48.549785498752,50.7878979377664,0.5833045814272,0.5824875606016,0.5748325608064,0.2177063836159999,-0.0211256010496,-9.7934090072576,-0.0104883640576,-0.0094134951808,-0.01061362592,33.6200516260864,0.2220686308736,-0.0219886066048,-9.78465428544,-0.0116618625664,-0.0097644951552,-0.0105571259136,-0.371616,-0.291391,0.815212,0.194932,-0.041699,-9.806817,0.2130329269478191,359.77866644041023,137.4868164742933,0.0014378749952,0.0014378749952,0.01096,0.3625404997376,0.00247387488,0.0010323755776,0.9319640001024,0.0014378749952,0.0014378749952,0.01096,2.152632,0.0,0.0,-0.00305495084032,0.0,0.0,0.00835523067904,0.0,0.0,0.0,-1.6643193634991746
2023-09-08 15:42:54.720,-0.1181945,0.1222274999999999,-0.0161531666666666,0.0890165,0.0890255,0.0714306666666666,48.35924883333333,-4.557294,48.550078,50.7878355,0.5837513333333333,0.5829325,0.5752295,0.215687,-0.026739,-9.791708,-0.013053,-0.010543,-0.010398,33.619797,0.220692,-0.0263,-9.776348,-0.014576,-0.0109,-0.010343,-0.3708862468864,-0.29189305214208,0.8154516260224001,0.19773228694784,-0.03813513479424,-9.78606643646464,0.1997330873826049,359.770072036814,137.47927488513758,0.001439,0.001439,0.01096,0.362602,0.002502,0.000897,0.93194,0.001439,0.001439,0.01096,2.152632,0.0,0.0,-0.002858,0.0,0.0,0.0089773333333333,0.0,0.0,0.0,-1.671860952654896
2023-09-08 15:42:54.905,-0.1519223008319999,0.1518529272512,-0.0068993157013333,0.0898883121984,0.0898973121984,0.0719286248277333,48.35924806250027,-4.557294,48.553685498752,50.7870654377664,0.5892612480938667,0.5884200606016,0.5801250608064,0.20608272832256,-0.01214620504832,-9.76814085815296,-0.02494479588608,-0.02123322130176,-0.0064020013824,33.6199727499392,0.20813882934272,-0.0039076077465599,-9.74759253494784,-0.0250423713792,-0.0211767464448,-0.00631370139392,-0.361886,-0.298085,0.818407,0.232269,0.005819,-9.530144,332.92376029037626,359.5813971001488,137.41742554494425,0.0014417749990399,0.0014417749990399,0.01095722500096,0.36310982482432,0.00316244977152,-0.00194552401664,0.93173835006976,0.0014417749990399,0.0014417749990399,0.01095722500096,2.152632,0.0,0.0,-0.00042895084032,0.0,0.0,0.0166498973457066,0.0,0.0,0.0,-1.7337102928482295
2023-09-08 15:42:54.920,-0.154657,0.154255,-0.006149,0.089959,0.089968,0.071969,48.359248,-4.557294,48.553978,50.787003,0.589708,0.588865,0.580522,0.205304,-0.010963,-9.76623,-0.025909,-0.0221,-0.006078,33.619987,0.207121,-0.002092,-9.745261,-0.025891,-0.02201,-0.005987,-0.356065975168,-0.2959921160704,0.8148849849728,0.2200473228544,0.0046088698368,-9.590189256192,359.901508555017,359.5660990617474,137.41241071044584,0.001442,0.001442,0.010957,0.363151,0.003216,-0.002176,0.931722,0.001442,0.001442,0.010957,2.152632,0.0,0.0,-0.000232,0.0,0.0,0.017272,0.0,0.0,0.0,-1.7387251273466404
2023-09-08 15:42:54.945,-0.1593576129664,0.1590212377984,-0.0037877560448,0.090293374144,0.090302374144,0.0721477495424,48.359248,-4.557294,48.554068624768,50.787003,0.590792372224,0.5899443722368,0.5814082477312,0.1992808904192,-0.009444253888,-9.769598741376,-0.0230846322304,-0.0226356236288,-0.0061073749248,33.6195032512384,0.2025566366848,0.00162674048,-9.7361478983296,-0.022744133056,-0.0225481236224,-0.0061407496064,-0.346366,-0.292504,0.809015,0.199678,0.002592,-9.690264,359.8703540546625,359.5345506539172,137.40403122414358,0.0014438749952,0.0014438749952,0.010960124992,0.363219749824,0.0033734995968,-0.002529124096,0.931693875072,0.0014438749952,0.0014438749952,0.010960124992,2.152632,0.0,0.0,0.00035224850432,0.0,0.0,0.01784462353408,0.0,0.0,0.0,-1.7471046136489008
2023-09-08 15:42:54.960,-0.162178,0.161881,-0.002371,0.090494,0.090503,0.072255,48.359248,-4.557294,48.554123,50.787003,0.591443,0.590592,0.58194,0.195667,-0.008533,-9.77162,-0.02139,-0.022957,-0.006125,33.619213,0.199818,0.003858,-9.73068,-0.020856,-0.022871,-0.006233,-0.3534542802432,-0.2910257436928,0.8111401340672,0.1964113610624,0.0074265206271999,-9.7529203923328,359.85166122684063,359.5156214799964,137.39900349803975,0.001445,0.001445,0.010962,0.363261,0.003468,-0.002741,0.931677,0.001445,0.001445,0.010962,2.152632,0.0,0.0,0.0007028,0.0,0.0,0.0181881999999999,0.0,0.0,0.0,-1.752132339752734
2023-09-08 15:42:54.985,-0.1664167391488,0.166393488448,-0.0015438146176,0.0901958757632,0.090204563264,0.0721090628736,48.359248,-4.557294,48.554174562368,50.7873151867008,0.5915739371648,0.5907219996672,0.5822006243328001,0.1892307664768,-0.0069530040448,-9.7664662631936,-0.0175456348416,-0.0225701259904,-0.00571875104,33.6199211231872,0.189002402688,-0.0073000964352,-9.7614561712128,-0.0172241342976,-0.0222760015232,-0.0057786261632,-0.365268,-0.288562,0.814682,0.190967,0.015484,-9.857347,359.82885040301784,359.485433843446,137.3931665054446,0.0014462499968,0.0014462499968,0.010962,0.3633091248768,0.0036411245568,-0.0030228742784,0.9316570000512,0.0014462499968,0.0014462499968,0.010962,2.152632,0.0,0.0,0.00128704850432,0.0,0.0,0.01876082353408,0.0,0.0,0.0,-1.7579693323478691
2023-09-08 15:42:55.000,-0.16896,0.169101,-0.0010474999999999,0.090017,0.0900255,0.0720215,48.359248,-4.557294,48.5542055,50.7875025,0.5916525,0.5908,0.582357,0.185369,-0.006005,-9.763374,-0.015239,-0.022338,-0.005475,33.620346,0.182513,-0.013995,-9.779922,-0.015045,-0.021919,-0.005506,-0.362991740288,-0.2944911502976,0.811436361152,0.1922847556224,0.0124149869056,-9.8354446565504,359.8151638152908,359.46732113786686,137.38966428597914,0.001447,0.001447,0.010962,0.363338,0.003745,-0.003192,0.931645,0.001447,0.001447,0.010962,2.152632,0.0,0.0,0.0016376,0.0,0.0,0.0191044,0.0,0.0,0.0,-1.7614715518133437
2023-09-08 15:42:55.025,-0.1731987391488,0.173613488448,-0.0002203146175999,0.0897188757631999,0.089727063264,0.0718755628736,48.359248,-4.557294,48.554257062368,50.7878146867008,0.5917834371648,0.5909299996672,0.5826176243328001,0.1869233710208,-0.0024537590912,-9.7580890135296,-0.0106627617152,-0.0212161278719999,-0.0055918747008,33.6204559997184,0.1856773668992,-0.0083143895424,-9.7808388726528,-0.0103587619968,-0.0208621277056,-0.0055722498304,-0.359198,-0.304373,0.806027,0.194481,0.0073,-9.798941,359.8036688789531,359.44006990249926,137.38407796177765,0.0014420000128,0.0014420000128,0.0109576250112,0.3633836248832,0.0039299995264,-0.0033719995392,0.9316256250496,0.0014420000128,0.0014420000128,0.0109576250112,2.152632,0.0,0.0,0.00222184850432,0.0,0.0,0.0196770235340799,0.0,0.0,0.0,-1.7670578760148317
2023-09-08 15:42:55.040,-0.175742,0.176321,0.000276,0.08954,0.089548,0.071788,48.359248,-4.557294,48.554288,50.788002,0.591862,0.591008,0.582774,0.187856,-0.000323,-9.754918,-0.007917,-0.020543,-0.005662,33.620522,0.187576,-0.004906,-9.781389,-0.007547,-0.020228,-0.005612,-0.3576931185792,-0.3021447404928,0.8134887818368001,0.1819011963263999,-0.0222906262528,-9.7871093245184,359.7967718700671,359.4237190496574,137.3807261443751,0.001439,0.001439,0.010955,0.363411,0.004041,-0.00348,0.931614,0.001439,0.001439,0.010955,2.152632,0.0,0.0,0.0025724,0.0,0.0,0.0200206,0.0,0.0,0.0,-1.7704096934173776
2023-09-08 15:42:55.065,-0.1800863638784,0.1813984870016,0.0018209960448,0.0898731241472,0.0898811241472,0.071966124544,48.359248,-4.5572933750016,48.5543592498176,50.788002,0.5929413722368,0.5920829972480001,0.5836571227392,0.1835516360192,-0.0018673710464,-9.7518936327424,-0.0037163857536,-0.0189017542016,-0.0054720004864,33.6211369984256,0.1789803970048,-0.0009122602239999,-9.7590065572992,-0.0040132590464,-0.0185955041792,-0.0053313757184,-0.355185,-0.298431,0.825925,0.160935,-0.071608,-9.76739,359.7927969855391,359.3996906936369,137.37503239086203,0.0014408749951999,0.0014402499968,0.010955,0.3634572498816,0.0042234995328,-0.0035887497216,0.9315946250496,0.0014408749951999,0.0014402499968,0.010955,2.152632,0.0,0.0,0.00315664850432,0.0,0.0,0.02059322353408,0.0,0.0,0.0,-1.776103446930449
2023-09-08 15:42:55.080,-0.182693,0.184445,0.002748,0.090073,0.090081,0.072073,48.359248,-4.557293,48.554402,50.788002,0.593589,0.592728,0.584187,0.180969,-0.002794,-9.750079,-0.001196,-0.017917,-0.005358,33.621506,0.173823,0.001484,-9.745577,-0.001893,-0.017616,-0.005163,-0.355509376384,-0.2972069947776,0.818374342784,0.1563101052672,-0.0792887827712,-9.7862477054592,359.79041203854115,359.38527358160417,137.37161611543252,0.001442,0.001441,0.010955,0.363485,0.004333,-0.003654,0.931583,0.001442,0.001441,0.010955,2.152632,0.0,0.0,0.0035072,0.0,0.0,0.0209368,0.0,0.0,0.0,-1.7795197223599644
2023-09-08 15:42:55.105,-0.1870911137408,0.1896443616896,0.0036223727615999,0.090407374144,0.0904150616448,0.0722504995455999,48.359248,-4.557293,48.554422312448,50.788002,0.5946871221888,0.5938217472,0.5850816852096,0.1714208994432,-0.0077714872576,-9.749966500288,0.0020121167872,-0.0152770067584,-0.0053842499328,33.6211722508544,0.17086988256,-0.0044634847744,-9.7394795156096,0.0020919897983999,-0.0150072566784,-0.0054467492736,-0.35605,-0.295167,0.80579,0.148602,-0.09209,-9.817677,359.7955686454964,359.3672254572609,137.3655284544437,0.0014432499968,0.0014428749952,0.010955,0.3635343748736,0.004495499584,-0.00366962496,0.9315630000512,0.0014432499968,0.0014428749952,0.010955,2.152632,0.0,0.0,0.00409144850432,0.0,0.0,0.02150942353408,0.0,0.0,0.0,-1.7856073833487756
2023-09-08 15:42:55.120,-0.18973,0.192764,0.004147,0.090608,0.0906154999999999,0.072357,48.359248,-4.557293,48.5544345,50.788002,0.595346,0.5944780000000001,0.5856185,0.165692,-0.010758,-9.749899,0.003937,-0.013693,-0.0054,33.620972,0.169098,-0.008032,-9.735821,0.004483,-0.013442,-0.005617,-0.356160625472,-0.2998203948544,0.8027521120384,0.1476333708672,-0.0705285330048,-9.862887192896,359.79866263079106,359.3563965087296,137.36187583291527,0.001444,0.001444,0.010955,0.363564,0.004593,-0.003679,0.931551,0.001444,0.001444,0.010955,2.152632,0.0,0.0,0.004442,0.0,0.0,0.0218529999999999,0.0,0.0,0.0,-1.7892600048772067
2023-09-08 15:42:55.145,-0.1941281137408,0.1979633616896,0.0050213727616,0.090942374144,0.0909495616447999,0.0725344995456,48.359248,-4.557293,48.554454812448,50.788002,0.5964441221888,0.5955717472,0.5865131852095999,0.1703182381568,0.0049344598271999,-9.758345853376,0.0073826161792,-0.0118530047104,-0.0056931242496,33.6211669995008,0.1705592462592,0.0022223487487999,-9.758911565888,0.00801424096,-0.0117695042816,-0.0057851245696,-0.356345,-0.307576,0.797689,0.146019,-0.034593,-9.938237,359.8119480556549,359.3421800298321,137.35399768340034,0.0014458749951999,0.0014458749951999,0.010958124992,0.3636277498368,0.0047504995968,-0.00361650016,0.9315253750656,0.0014458749951999,0.0014458749951999,0.010958124992,2.152632,0.0,0.0,0.00502624850432,0.0,0.0,0.02242562353408,0.0,0.0,0.0,-1.797138154392144
2023-09-08 15:42:55.160,-0.196767,0.201083,0.005546,0.091143,0.09115,0.072641,48.359248,-4.557293,48.554467,50.788002,0.597103,0.596228,0.58705,0.173094,0.01435,-9.763414,0.00945,-0.010749,-0.005869,33.621284,0.171436,0.008375,-9.772766,0.010133,-0.010766,-0.005886,-0.3585421343744,-0.3063321196928,0.8024282702208,0.1532947810432,-0.0454552963456,-9.9085027481344,359.8199193649904,359.33365008426284,137.3492707614224,0.001447,0.001447,0.01096,0.363666,0.004845,-0.003579,0.93151,0.001447,0.001447,0.01096,2.152632,0.0,0.0,0.0053768,0.0,0.0,0.0227692,0.0,0.0,0.0,-1.801865076370092
2023-09-08 15:42:55.185,-0.2011178221952,0.2053550723968,0.0050614179071999,0.0910655001984,0.0910722918656,0.0726085000832,48.359248,-4.557293,48.5548897072512,50.7877938755328,0.5975700821376,0.5966929988096,0.5875347904256,0.1655952691967999,0.0159318709504,-9.76430462272,0.01237186752,-0.0076633828992,-0.0064264985727999,33.6210458756096,0.1640097690112,0.0123174899072,-9.7643703964928,0.0122836194944,-0.007387883648,-0.0064909984512,-0.362204,-0.304259,0.810327,0.165421,-0.063559,-9.858946,359.8381465381863,359.3271685157983,137.3412493728254,0.0014488749951999,0.0014488749951999,0.0109606249984,0.3637303748352,0.0049556247168,-0.0034515003264,0.931485000064,0.0014488749951999,0.0014488749951999,0.0109606249984,2.152632,0.0,0.0,0.00596104850432,0.0,0.0,0.02334182353408,0.0,0.0,0.0,-1.809886464967093
2023-09-08 15:42:55.200,-0.2037283333333333,0.2079183333333333,0.0047706666666666,0.091019,0.0910256666666666,0.072589,48.359248,-4.557293,48.55514333333333,50.787669,0.5978503333333334,0.596972,0.5878256666666667,0.161096,0.016881,-9.764839,0.014125,-0.005812,-0.006761,33.620903,0.159554,0.014683,-9.759333,0.013574,-0.005361,-0.006854,-0.359137424416,-0.3020719906688,0.8123475086208001,0.1603541658816,-0.0633381240576,-9.84400218624,359.84908291676254,359.323279548171,137.33643650681148,0.00145,0.00145,0.010961,0.363769,0.005022,-0.003375,0.93147,0.00145,0.00145,0.010961,2.152632,0.0,0.0,0.0063116,0.0,0.0,0.0236854,0.0,0.0,0.0,-1.814699330981
2023-09-08 15:42:55.265,-0.2150404888618666,0.2190257390634666,0.0035107512405333,0.0908175001984,0.0908236251989333,0.0725045000831999,48.359248,-4.557293,48.55624237391787,50.7871278755328,0.5990647488042666,0.5981809988096,0.5890861237589333,0.1547958812032,0.0031245760447999,-9.7936030966784,0.0176374340415999,-0.0009508172863999,-0.0073484369216,33.6202928131008,0.1596628748928,0.0069114451519999,-9.7832147889856,0.0175503710848,-0.0007200045695999,-0.0072366871232,-0.345849,-0.292595,0.821103,0.138398,-0.062381,-9.779246,359.9145361184375,359.3222553871206,137.31753608015427,0.0014451250048,0.0014451250048,0.0109553125056,0.363919312352,0.005237312288,-0.00284687552,0.9314115000576,0.0014451250048,0.0014451250048,0.0109553125056,2.152632,0.0,0.0,0.00783064850432,0.0,0.0,0.0251742235340799,0.0,0.0,0.0,-1.8335997576382117
2023-09-08 15:42:55.280,-0.217651,0.221589,0.00322,0.090771,0.090777,0.072485,48.359248,-4.557293,48.556496,50.787003,0.599345,0.59846,0.589377,0.153342,-5e-05,-9.800241,0.018448,0.000171,-0.007484,33.620152,0.159688,0.005118,-9.788726,0.018468,0.000351,-0.007325,-0.3508773964544,-0.2911669939072,0.8154697259648,0.1501640502016,-0.0350936335744,-9.7298702893312,359.929640782758,359.3220190410217,137.31317442032918,0.001444,0.001444,0.010954,0.363954,0.005287,-0.002725,0.931398,0.001444,0.001444,0.010954,2.152632,0.0,0.0,0.0081812,0.0,0.0,0.0255178,0.0,0.0,0.0,-1.8379614174633048
2023-09-08 15:42:55.305,-0.2223247380352,0.2263546128,0.0023750021632,0.091105374144,0.091111374144,0.0726612495488,48.359248,-4.557293,48.556602249728,50.787003,0.6004581221504001,0.5995687471616,0.5902813726848001,0.1602994821888,0.0016049957632,-9.8099834750592,0.0190767483903999,0.0018503707007999,-0.0075489998336,33.619624501350394,0.1597779997696,0.0048880005888,-9.7990609735424,0.0194998723584,0.0019909958016,-0.0075262494848,-0.359258,-0.288787,0.806081,0.169774,0.010385,-9.647578,359.95725011583073,359.32749793591165,137.3039713093049,0.0014458749951999,0.0014458749951999,0.010954,0.3640277498112,0.0053301248896,-0.0024837506176,0.931369875072,0.0014458749951999,0.0014458749951999,0.010954,2.152632,0.0,0.0,0.00876544850432,0.0,0.0,0.0260904235340799,0.0,0.0,0.0,-1.847164528487582
2023-09-08 15:42:55.320,-0.225129,0.229214,0.001868,0.091306,0.091312,0.072767,48.359248,-4.557293,48.556666,50.787003,0.601126,0.600234,0.590824,0.164474,0.002598,-9.815829,0.019454,0.002858,-0.007588,33.619308,0.159832,0.00475,-9.805262,0.020119,0.002975,-0.007647,-0.3604178799488,-0.2980825396608,0.8061492502912,0.1594967061504,0.0386691206784,-9.7151079131264,359.9738158287625,359.3307852952872,137.2984494049943,0.001447,0.001447,0.010954,0.364072,0.005356,-0.002339,0.931353,0.001447,0.001447,0.010954,2.152632,0.0,0.0,0.009116,0.0,0.0,0.026434,0.0,0.0,0.0,-1.85268643279818
2023-09-08 15:42:55.345,-0.2298064880256,0.2339502378752,-0.0001732447744,0.0916416241408,0.0916476241408,0.0729444995456,48.359248,-4.557293,48.5567091248896,50.787003,0.6022516221184,0.6013552471296,0.5917358726656,0.162852129152,0.0032336233728,-9.821472735552,0.0192340005632,0.0035836231424,-0.0072898757632,33.6188217512448,0.160241373952,-0.002128107392,-9.8400250360064,0.0196233762688,0.0036356233088,-0.0072257510784,-0.362351,-0.313575,0.806263,0.142368,0.085809,-9.827657,135.00085524917858,359.3378040103096,137.28899562557638,0.0014488749951999,0.0014488749951999,0.010957124992,0.3641476248064,0.0053828749312,-0.0021021256064,0.9313236250752,0.0014488749951999,0.0014488749951999,0.010957124992,2.152632,0.0,0.0,0.00959949876224,0.0,0.0,0.025218378112,0.0,0.0,0.0,-1.8621402122161044
2023-09-08 15:42:55.360,-0.232613,0.236792,-0.001398,0.091843,0.091849,0.073051,48.359248,-4.557293,48.556735,50.787003,0.602927,0.602028,0.592283,0.161879,0.003615,-9.824859,0.019102,0.004019,-0.007111,33.61853,0.160487,-0.006255,-9.860883,0.019326,0.004032,-0.006973,-0.3537098381312,-0.3081614769024,0.8131266542848,0.1563476846464,0.0801206007295999,-9.844648322496,0.0161574098226892,359.34201526807175,137.28332331920285,0.00145,0.00145,0.010959,0.364193,0.005399,-0.00196,0.931306,0.00145,0.00145,0.010959,2.152632,0.0,0.0,0.0098896,0.0,0.0,0.024489,0.0,0.0,0.0,-1.8678125185896304
2023-09-08 15:42:55.385,-0.2370015304319999,0.2403984491008,-0.0020436233472,0.0915777923456,0.091584417344,0.0728768337792,48.3592477916672,-4.5572927916672,48.5529268847488,50.787003,0.5983815949696,0.5975017615872,0.5882088437632,0.1546252685696,-0.0024937343616,-9.8294096133504,0.0179157530368,0.0051558720896,-0.0067278759808,33.6183012505856,0.1509451494272,-0.005623751616,-9.8374099350912,0.0177610040064,0.0052451218944,-0.0067336256128,-0.339308,-0.299139,0.824566,0.179647,0.07064,-9.872967,0.039004043415999,359.3517913354244,137.27508707198268,0.0014518749952,0.0014518749952,0.010959,0.364258624832,0.0053921250176,-0.0017431255552,0.9312803750656,0.0014518749952,0.0014518749952,0.010959,2.152632,0.0,0.0,0.01037309876224,0.0,0.0,0.023273378112,0.0,0.0,0.0,-1.8760487658097984
2023-09-08 15:42:55.400,-0.2396346666666666,0.2425623333333333,-0.002431,0.0914186666666666,0.0914256666666666,0.0727723333333333,48.35924766666667,-4.557292666666666,48.550642,50.787003,0.5956543333333333,0.594786,0.5857643333333333,0.150273,-0.006159,-9.83214,0.017204,0.005838,-0.006498,33.618164,0.14522,-0.005245,-9.823326,0.016822,0.005973,-0.00659,-0.3413157585664,-0.2990458746026666,0.8242316235733333,0.1759979844309333,0.0705538746325333,-9.879128151287466,0.0527121171520357,359.35765701587883,137.27014528991484,0.001453,0.001453,0.010959,0.364298,0.005388,-0.001613,0.931265,0.001453,0.001453,0.010959,2.152632,0.0,0.0,0.0106632,0.0,0.0,0.022544,0.0,0.0,0.0,-1.8809905478776443
2023-09-08 15:42:55.480,-0.253678,0.254103,-0.004497,0.09057,0.090579,0.072215,48.359247,-4.557292,48.538456,50.787003,0.581109,0.580302,0.572727,0.1422356666666666,0.0063356666666666,-9.83561,0.0113906666666666,0.006978,-0.0046366666666666,33.617882,0.1411613333333333,0.0009063333333333,-9.844802666666666,0.011302,0.006733,-0.004564,-0.3520237585664,-0.298549207936,0.82244829024,0.1565366510976,0.0700945412992,-9.9119874846208,0.1006495860113145,359.3958923994072,137.25452264070094,0.0014496666666666,0.0014496666666666,0.0109516666666666,0.364442,0.005243,-0.001048,0.931211,0.001446,0.001446,0.010948,2.152632,0.0,0.0,0.0122104,0.0,0.0,0.018654,0.0,0.0,0.0,-1.89661319709154
2023-09-08 15:42:55.505,-0.2584461127936,0.2574948663168,-0.0060757459584,0.0909068741376,0.0909158741376,0.0723918745472,48.359247,-4.557292,48.5387066243584,50.787003,0.5821977472128,0.5813876222208,0.5736107477376,0.1397240064298666,0.0102402400042666,-9.836694372224,0.0095740046506666,0.007334249088,-0.0040550014890666,33.6177938752256,0.1398930032469333,0.0028286200789333,-9.851514107818668,0.0095770044159999,0.006970499392,-0.0039308766208,-0.35537,-0.298394,0.821891,0.150455,0.069951,-9.922256,0.1156300066798641,359.4078409261716,137.24964057531972,0.0014486250026666,0.0014486250026666,0.0109493750058666,0.364470124928,0.0051848751488,-0.00092300032,0.9312003750272,0.0014472499968,0.0014472499968,0.010948,2.152632,0.0,0.0,0.01269389876224,0.0,0.0,0.017438378112,0.0,0.0,0.0,-1.901495262472764
2023-09-08 15:42:55.520,-0.261307,0.25953,-0.007023,0.091109,0.091118,0.072498,48.359247,-4.557292,48.538857,50.787003,0.582851,0.582039,0.574141,0.138217,0.012583,-9.837345,0.008484,0.007548,-0.003706,33.617741,0.139132,0.003982,-9.855541,0.008542,0.007113,-0.003551,-0.355400000128,-0.2902122150912,0.8219195001216,0.1318687956992,0.048690284288,-9.929412905536,0.124618320440954,359.41501009117144,137.24671131609398,0.001448,0.001448,0.010948,0.364487,0.00515,-0.000848,0.931194,0.001448,0.001448,0.010948,2.152632,0.0,0.0,0.012984,0.0,0.0,0.016709,0.0,0.0,0.0,-1.9044245216985016
2023-09-08 15:42:55.545,-0.2655469891456,0.2630231160576,-0.0082561218432,0.0914464991359999,0.091455499136,0.072676124544,48.359247,-4.557292,48.5390682494592,50.787003,0.5839534971776,0.5831364971904,0.5750334977152,0.1325288895616,-0.0052719542912,-9.8381118730368,0.0060790061568,0.007557374976,-0.0031722513664,33.6178241247872,0.1334020146688,-0.0108610870015999,-9.8493466408576,0.0053707581184,0.0076186237056,-0.003110376128,-0.35545,-0.276576,0.821967,0.100892,0.013256,-9.941341,0.1283067268047642,359.4275793206248,137.24316614881226,0.0014498749952,0.0014498749952,0.0109517499904,0.3645157499264,0.005059375232,-0.0007780001792,0.9311833750272,0.0014498749952,0.0014498749952,0.0109517499904,2.152632,0.0,0.0,0.01331599915008,0.0,0.0,0.01558325288192,0.0,0.0,0.0,-1.9079696889802165
2023-09-08 15:42:55.560,-0.268091,0.265119,-0.008996,0.091649,0.091658,0.072783,48.359247,-4.557292,48.539195,50.787003,0.584615,0.583795,0.575569,0.129116,-0.015985,-9.838572,0.004636,0.007563,-0.002852,33.617874,0.129964,-0.019767,-9.84563,0.003468,0.007922,-0.002846,-0.3507894801152,-0.2826127757568,0.818518860288,0.1087674086016,-0.0255345405055999,-9.932127210688,0.1305197857308015,359.4351209097805,137.2410390339222,0.001451,0.001451,0.010954,0.364533,0.005005,-0.000736,0.931177,0.001451,0.001451,0.010954,2.152632,0.0,0.0,0.0135152,0.0,0.0,0.0149078,0.0,0.0,0.0,-1.9100968038702888
2023-09-08 15:42:55.585,-0.271978490048,0.2687477407104,-0.0098947476992,0.0919864991359999,0.091995499136,0.0729586245504,48.359247,-4.557292,48.5395499990912,50.787003,0.5857312471424,0.5849068721536,0.5764671227008,0.1268697557504,-0.022013109568,-9.8456813568,0.0017153824768,0.0078761241984,-0.0020370020864,33.617807125171204,0.1279458801664,-0.0263251082112,-9.8399468895488,0.001086756096,0.0079326249728,-0.0019660022528,-0.343022,-0.292674,0.812772,0.121893,-0.090185,-9.916771,0.12872929720468,359.4477259490044,137.24093160461064,0.0014528749952,0.0014528749952,0.0109533750016,0.3645342499968,0.0048968752768,-0.000711000064,0.931177,0.0014528749952,0.0014528749952,0.0109533750016,2.152632,0.0,0.0,0.01384719915008,0.0,0.0,0.01378205288192,0.0,0.0,0.0,-1.910204233181844
2023-09-08 15:42:55.600,-0.274311,0.270925,-0.010434,0.092189,0.092198,0.073064,48.359247,-4.557292,48.539763,50.787003,0.586401,0.585574,0.577006,0.125522,-0.02563,-9.849947,-3.7e-05,0.008064,-0.001548,33.617767,0.126735,-0.03026,-9.836537,-0.000342,0.007939,-0.001438,-0.3572480606976,-0.2955468872576,0.815488886592,0.1315879163648,-0.0726915503616,-9.834222272793602,0.1276549967551474,359.45528902416913,137.24086714658367,0.001454,0.001454,0.010953,0.364535,0.004832,-0.000696,0.931177,0.001454,0.001454,0.010953,2.152632,0.0,0.0,0.0140464,0.0,0.0,0.0131066,0.0,0.0,0.0,-1.9102686912088127
2023-09-08 15:42:55.620,-0.277693,0.2729525,-0.011531,0.0914635,0.091472,0.0727055,48.359247,-4.557292,48.54032,50.7875025,0.5857954999999999,0.58497,0.5767645,0.1264015,-0.0210624999999999,-9.8434855,-0.0013245,0.0081175,-0.000976,33.617487,0.127134,-0.023344,-9.844311,-0.001527,0.008119,-0.00076,-0.3762160606976,-0.2993773872576,0.819111386592,0.1445144163648,-0.0493670503615999,-9.7241577727936,0.1237875316380143,359.4659746870483,137.24261466785882,0.0014495,0.0014495,0.0109495,0.3645215,0.004733,-0.000693,0.931183,0.0014495,0.0014495,0.0109495,2.152632,0.0,0.0,0.014312,0.0,0.0,0.012206,0.0,0.0,0.0,-1.908521169933664
2023-09-08 15:42:55.625,-0.2785384891776,0.273459368512,-0.0118052464896,0.0912821273216,0.0912905023231999,0.0726158761472,48.359247,-4.557292,48.5404592482176,50.7876273734016,0.5856441269375999,0.5848190019328,0.5767041257728001,0.1266213721856,-0.0199206396159999,-9.8418701456768,-0.0016463708799999,0.0081308748287999,-0.0008330018303999,33.617417000896,0.1272337487232,-0.0216150221312,-9.8462544751232,-0.001823246208,0.008163999424,-0.0005905021696,-0.380958,-0.300335,0.820017,0.147746,-0.043536,-9.696642,0.1228206777346194,359.468646068574,137.24305154258553,0.0014483750144,0.0014483750144,0.0109486250112,0.3645181250432,0.0047082503168,-0.0006922500096,0.9311844999808,0.0014483750144,0.0014483750144,0.0109486250112,2.152632,0.0,0.0,0.01433339972608,0.0,0.0,0.0119125037567999,0.0,0.0,0.0,-1.9080842952069477
2023-09-08 15:42:55.640,-0.281075,0.27498,-0.012628,0.090738,0.090746,0.072347,48.359247,-4.557292,48.540877,50.788002,0.58519,0.584366,0.576523,0.127281,-0.016495,-9.837024,-0.002612,0.008171,-0.000404,33.617207,0.127533,-0.016428,-9.852085,-0.002712,0.008299,-8.2e-05,-0.373686718976,-0.298341866496,0.8224380103296,0.138879087168,-0.0123088667648,-9.7696128113408,0.1199200665208812,359.4766603499275,137.24436218913397,0.001445,0.001445,0.010946,0.364508,0.004634,-0.00069,0.931189,0.001445,0.001445,0.010946,2.152632,0.0,0.0,0.0143976,0.0,0.0,0.011032,0.0,0.0,0.0,-1.9067736486585147
2023-09-08 15:42:55.665,-0.2853681140096,0.2782274916864,-0.014152996096,0.0910742491392,0.0910828741376,0.0725238745472,48.359247,-4.557292,48.5414001236608,50.788002,0.5862893721856001,0.5854616221952,0.5774142477184,0.1305416166528,-0.016710624448,-9.8557252021248,-0.0040794962432,0.008777248448,0.0006847472127999,33.617614498956804,0.1324617373824,-0.0109055141376,-9.8580774846592,-0.0040469965824,0.0086702490496,0.0007454978816,-0.361568,-0.29502,0.826473,0.124101,0.039736,-9.89123,0.1116121997596776,359.49062616043125,137.2490532690724,0.0014468749952,0.0014468749952,0.0109453750016,0.364470500096,0.0044940003584,-0.0007131249408,0.9312039999616,0.0014468749952,0.0014468749952,0.0109453750016,2.152632,0.0,0.0,0.01450459972608,0.0,0.0,0.0095645037568,0.0,0.0,0.0,-1.9020825687200895
2023-09-08 15:42:55.680,-0.287944,0.280176,-0.015068,0.091276,0.091285,0.07263,48.359247,-4.557292,48.541714,50.788002,0.586949,0.586119,0.577949,0.132498,-0.01684,-9.866946,-0.00496,0.009141,0.001338,33.617859,0.135419,-0.007592,-9.861673,-0.004848,0.008893,0.001242,-0.3535530908032,-0.2930032413952,0.8182162147712,0.130134775744,0.0471321565568,-9.906732566144,0.1066274456738462,359.4990057039376,137.25186793625016,0.001448,0.001448,0.010945,0.364448,0.00441,-0.000727,0.931213,0.001448,0.001448,0.010945,2.152632,0.0,0.0,0.0145688,0.0,0.0,0.008684,0.0,0.0,0.0,-1.8992679015423164
2023-09-08 15:42:55.705,-0.291472115968,0.2832384921599999,-0.0165270587648,0.0916138116352,0.091622499136,0.0728068745472,48.359247,-4.5572916875008005,48.5422496236288,50.788002,0.5880683721344,0.5872336846464,0.5788518101888,0.1294786327296,-0.015208754176,-9.864871005312,-0.0067462454272,0.0100809975936,0.0014936246016,33.6178208750976,0.1269608966528,-0.016254477824,-9.8563467636352,-0.0067411201536,0.0101848716928,0.0014851243776,-0.340195,-0.289642,0.804455,0.140191,0.059459,-9.93257,0.0940224064499511,359.5159437253947,137.25645158687703,0.0014498749952,0.0014498749952,0.010945,0.3644117500927999,0.0042325004544,-0.0007757498752,0.9312279999616,0.0014498749952,0.0014498749952,0.010945,2.152632,0.0,0.0,0.01467579972608,0.0,0.0,0.0072165037567999,0.0,0.0,0.0,-1.8946842509154465
2023-09-08 15:42:55.720,-0.293589,0.285076,-0.0174025,0.0918165,0.091825,0.072913,48.359247,-4.5572915,48.542571,50.788002,0.58874,0.5879025,0.5793935,0.127667,-0.01423,-9.863626,-0.007818,0.010645,0.001587,33.617798,0.121886,-0.021452,-9.853151,-0.007877,0.01096,0.001631,-0.3431419500736,-0.2895137494528,0.8054643168064,0.1333354082496,0.0477814501759999,-9.9097579026688,0.0864593312852412,359.5261066076473,137.25920179602784,0.001451,0.001451,0.010945,0.36439,0.004126,-0.000805,0.931237,0.001451,0.001451,0.010945,2.152632,0.0,0.0,0.01474,0.0,0.0,0.006336,0.0,0.0,0.0,-1.8919340417646424
2023-09-08 15:42:55.760,-0.299234,0.289976,-0.019737,0.092357,0.092365,0.073196,48.359247,-4.557291,48.543428,50.788002,0.590531,0.589686,0.580838,0.124375,-0.016023,-9.8614055,-0.0082875,0.012714,0.002562,33.61808,0.1205445,-0.019725,-9.8699375,-0.0081785,0.0128274999999999,0.00259,-0.3510004500736,-0.2891717494528,0.8081558168063999,0.1150539082496,0.016641450176,-9.8489259026688,0.0638274983775736,359.5598538217805,137.2688561348758,0.001454,0.001454,0.0109474999999999,0.364332,0.003792,-0.000895,0.931261,0.001454,0.001454,0.01095,2.152632,0.0,0.0,0.0149112,0.0,0.0,0.003988,0.0,0.0,0.0,-1.8822797029166909
2023-09-08 15:42:55.785,-0.3025458665216,0.29314786688,-0.0221676187776,0.0926951241344,0.0927037491328,0.0733716245504,48.359247,-4.557291,48.544159248128,50.788002,0.5916703720832001,0.5908209970944,0.5817511226624,0.1223175052671999,-0.0171436221312,-9.8600176910528,-0.0085809367487999,0.0140071216896,0.00317137344,33.6182562495488,0.1197060646464,-0.0186456277632,-9.8804290356416,-0.0083669370176,0.013994684512,0.0031893734656,-0.355912,-0.288958,0.809838,0.103628,-0.002821,-9.810906,0.049682639021214,359.5809457766182,137.2748900812088,0.0014558749952,0.0014558749952,0.010949062496,0.3642713751552,0.0035682505728,-0.0009337499007999,0.9312853749376,0.0014558749952,0.0014558749952,0.01095,2.152632,0.0,0.0,0.01501819972608,0.0,0.0,0.0025205037567999,0.0,0.0,0.0,-1.8762457565836712
2023-09-08 15:42:55.800,-0.304533,0.295051,-0.023626,0.092898,0.092907,0.073477,48.359247,-4.557291,48.544598,50.788002,0.592354,0.591502,0.582299,0.121083,-0.017816,-9.859185,-0.008757,0.014783,0.003537,33.618362,0.119203,-0.017998,-9.886724,-0.00848,0.014695,0.003549,-0.3557777494272,-0.2913163850624,0.8128511378559999,0.1173091833728,0.0169693344383999,-9.7897232846208,0.0411956654699061,359.5936010359137,137.27851047372374,0.001457,0.001457,0.01095,0.364235,0.003434,-0.000957,0.9313,0.001457,0.001457,0.01095,2.152632,0.0,0.0,0.0150824,0.0,0.0,0.0016399999999999,0.0,0.0,0.0,-1.872625364068739
2023-09-08 15:42:55.820,-0.307307,0.2958275,-0.0249885,0.092149,0.0921575,0.073109,48.3592465,-4.557291,48.545726,50.7875025,0.5916785,0.5908279999999999,0.5820205,0.1150025,-0.0174855,-9.8649365,-0.0080755,0.0158135,0.0037645,33.618270499999994,0.1141175,-0.0163175,-9.8699595,-0.008015,0.0158099999999999,0.003821,-0.3555987494272,-0.2944608850624,0.816868637856,0.1355506833728,0.0433563344383999,-9.7614797846208,0.0322002280863522,359.614399403877,137.285070840478,0.0014525,0.0014525,0.010946,0.3641824999999999,0.0032365,-0.000964,0.9313215,0.0014525,0.0014525,0.010946,2.152632,0.0,0.0,0.015168,0.0,0.0,0.000466,0.0,0.0,0.0,-1.8660649973144812
2023-09-08 15:42:55.825,-0.3080004911232,0.2960216225152,-0.02532912064,0.0919617523967999,0.0919701273984,0.0730170011776,48.3592463750016,-4.557291,48.5460079963904,50.7873776265984,0.5915096271615999,0.5906595021568,0.5819508758912,0.1134823944576,-0.0174028760576,-9.8663743565952,-0.0079051271808,0.0160711217024,0.003821374272,33.6182476252928,0.1128461412736,-0.0158973803776,-9.8657684286464,-0.007898751488,0.016088746432,0.0038889991296,-0.355554,-0.295247,0.817873,0.140111,0.049953,-9.754419,0.0299513975258633,359.619598929313,137.28671091117337,0.0014513750144,0.0014513750144,0.0109450000128,0.364169375168,0.003187125632,-0.0009657499776,0.9313268749312,0.0014513750144,0.0014513750144,0.0109450000128,2.152632,0.0,0.0,0.0150892676744533,0.0,0.0,-2.9939968000000346e-06,0.0,0.0,0.0,-1.864424926619108
2023-09-08 15:42:55.840,-0.310081,0.296604,-0.026351,0.0914,0.091408,0.072741,48.359246,-4.557291,48.546854,50.787003,0.591003,0.590154,0.581742,0.108922,-0.017155,-9.870688,-0.007394,0.016844,0.003992,33.618179,0.109032,-0.014637,-9.853195,-0.00755,0.016925,0.004093,-0.350862729984,-0.2907777309311999,0.815973616896,0.1371361123072,0.0376559475327999,-9.7570237611136,0.0232047907027983,359.6351977718402,137.29163120723223,0.001448,0.001448,0.010942,0.36413,0.003039,-0.000971,0.931343,0.001448,0.001448,0.010942,2.152632,0.0,0.0,0.0148530666666666,0.0,0.0,-0.00141,0.0,0.0,0.0,-1.8595046305602525
2023-09-08 15:42:55.865,-0.3127959930496,0.2996058673152,-0.0289053684608,0.0917374991359999,0.091745499136,0.0729172495488,48.359246,-4.557291,48.5477158727936,50.787003,0.5921242471296,0.5912708721408,0.5826469976831999,0.1112426190592,-0.020942490304,-9.8752486133248,-0.0064546274048,0.0181589966336,0.0044594988032,33.619285247168,0.1104651213312,-0.0226169795712,-9.874104321472,-0.0067350020864,0.0183968712319999,0.0045361238656,-0.343044,-0.283329,0.812808,0.132178,0.017161,-9.761365,0.0128915767923386,359.66406044688125,137.3003687912397,0.0014498749952,0.0014498749952,0.010942,0.3640593751808,0.0027715006848,-0.0009628750207999,0.931371124928,0.0014498749952,0.0014498749952,0.010942,2.152632,0.0,0.0,0.0144594010077866,0.0,0.0,-0.0037549939968,0.0,0.0,0.0,-1.8507670465527892
2023-09-08 15:42:55.880,-0.314425,0.301407,-0.030438,0.09194,0.091948,0.073023,48.359246,-4.557291,48.548233,50.787003,0.592797,0.591941,0.58319,0.112635,-0.023215,-9.877985,-0.005891,0.018948,0.00474,33.619949,0.111325,-0.027405,-9.88665,-0.006246,0.01928,0.004802,-0.3418372448512,-0.2880570201728,0.8126894994944,0.1191361943552,-0.0227882954496,-9.7889077425152,0.0067036062030306,359.68137817012774,137.30561137743342,0.001451,0.001451,0.010942,0.364017,0.002611,-0.000958,0.931388,0.001451,0.001451,0.010942,2.152632,0.0,0.0,0.0142232,0.0,0.0,-0.005162,0.0,0.0,0.0,-1.8455244603590584
2023-09-08 15:42:55.905,-0.316790618944,0.3039169935744,-0.0334764297216,0.0922778116351999,0.0922858116352,0.0731992495488,48.359246,-4.557291,48.549191747545606,50.787003,0.5939385595776,0.5930781845888,0.5841068726528,0.1087981348224,-0.02019938272,-9.886975601984,-0.00493787744,0.0201036220416,0.0051312489984,33.6196033758848,0.1092768802432,-0.0178781493888,-9.9002805901056,-0.0049441283328,0.0202374975488,0.00514574912,-0.339826,-0.295937,0.812492,0.0974,-0.08937,-9.834812,224.99878660324595,359.7123894314002,137.31520839593344,0.0014528749952,0.0014528749952,0.010942,0.3639395001984,0.0023353757056,-0.0009186251007999,0.93141924992,0.0014528749952,0.0014528749952,0.010942,2.152632,0.0,0.0,0.01382953434112,0.0,0.0,-0.0075069939967999,0.0,0.0,0.0,-1.8359274418590417
2023-09-08 15:42:55.920,-0.31821,0.305423,-0.0352995,0.0924805,0.0924885,0.073305,48.359246,-4.557291,48.549767,50.787003,0.5946235,0.5937605,0.584657,0.106496,-0.01839,-9.89237,-0.004366,0.020797,0.005366,33.619396,0.108048,-0.012162,-9.908459,-0.004163,0.020812,0.005352,-0.3445268325568,-0.2963180016256,0.8144071331712,0.0962425575616,-0.0815478416256,-9.860549297312,359.99495797140287,359.7309963151861,137.32096664634295,0.001454,0.001454,0.010942,0.363893,0.00217,-0.000895,0.931438,0.001454,0.001454,0.010942,2.152632,0.0,0.0,0.0135933333333333,0.0,0.0,-0.008914,0.0,0.0,0.0,-1.830169191449528
2023-09-08 15:42:55.960,-0.321995,0.309439,-0.040161,0.093021,0.093029,0.073587,48.359246,-4.557291,48.551301,50.787003,0.59645,0.59558,0.586124,0.1026155,-0.01709,-9.9004555,-0.0015265,0.0213795,0.005218,33.6194135,0.103361,-0.0079575,-9.889144,-0.0012745,0.0213945,0.005168,-0.3570623325568,-0.2973340016256,0.8195141331712,0.0931560575616,-0.0606888416255999,-9.929181797312,359.99418447837945,359.78296358720445,137.3347176334261,0.0014565,0.0014565,0.010945,0.363781,0.001741,-0.000756,0.931482,0.001456,0.001456,0.010948,2.152632,0.0,0.0,0.0129634666666666,0.0,0.0,-0.012666,0.0,0.0,0.0,-1.8164182043663857
2023-09-08 15:42:55.985,-0.3239595783039999,0.3109564961152,-0.042278702912,0.0929024586368,0.0929100419712,0.0735355417984,48.359246,-4.5572907916672,48.551694748992,50.787003,0.5968777072384001,0.5960056239104,0.5865902488064,0.1001901937088,-0.01627750208,-9.9055089245632,0.0002481829567999,0.021743561568,0.0051255002368,33.619424437472,0.1004316324992,-0.0053296942271999,-9.877072155904,0.0005308078783999,0.021758561568,0.0050530002943999,-0.364897,-0.297969,0.822706,0.091227,-0.047652,-9.972077,359.9937010464774,359.8154430490683,137.3433119783515,0.001458062496,0.001458062496,0.0109468749952,0.3637116251776,0.001478500672,-0.0006441252864,0.931510124928,0.0014578749952,0.0014578749952,0.010948,2.152632,0.0,0.0,0.0125698010077866,0.0,0.0,-0.0150109939968,0.0,0.0,0.0,-1.8078238594409868
2023-09-08 15:42:56.000,-0.3251383333333333,0.311867,-0.0435493333333333,0.0928313333333333,0.0928386666666666,0.0735046666666666,48.359246,-4.557290666666667,48.551931,50.787003,0.5971343333333333,0.596261,0.58687,0.098735,-0.01579,-9.908541,0.001313,0.021962,0.00507,33.619431,0.098674,-0.003753,-9.869829,0.001614,0.021977,0.004984,-0.3649303751424,-0.2979628124735999,0.8219501842752001,0.0915339388096,-0.0323155595648,-9.9486394,359.993410985356,359.8349308592228,137.34846862050924,0.001459,0.001459,0.010948,0.36367,0.001321,-0.000577,0.931527,0.001459,0.001459,0.010948,2.152632,0.0,0.0,0.0123336,0.0,0.0,-0.016418,0.0,0.0,0.0,-1.8026672172832436
2023-09-08 15:42:56.065,-0.3302462449706667,0.3158124961151999,-0.0490553695786666,0.0925231253034666,0.0925293753045333,0.0733708751317333,48.359246,-4.5572901250005335,48.552954748992,50.787003,0.5982463739050666,0.5973676239104,0.5880822488064,0.0976928343594666,-0.0127366280063999,-9.903108088682666,0.0058781621717333,0.0209859176277333,0.0051566665813333,33.618399667682134,0.103898369856,-0.0083051621845333,-9.882158946193067,0.0058536208256,0.0208015844906666,0.0051297081898666,-0.365075,-0.297936,0.818675,0.092864,0.034142,-9.847077,67.51376323138868,359.9179810098545,137.36932426371715,0.0014533125056,0.0014533125056,0.0109415000064,0.3635010001664,0.0007100006016,-0.0001504379199999,0.9315936249344,0.0014533125056,0.0014533125056,0.0109415000064,2.152632,0.0,0.0,0.0113100676744533,0.0,0.0,-0.0225149939968,0.0,0.0,0.0,-1.7818115740753342
2023-09-08 15:42:56.080,-0.331425,0.316723,-0.050326,0.092452,0.092458,0.07334,48.359246,-4.55729,48.553191,50.787003,0.598503,0.597623,0.588362,0.0974523333333333,-0.012032,-9.901854333333333,0.0069316666666666,0.0207606666666666,0.0051766666666666,33.618161666666666,0.105104,-0.0093556666666666,-9.885004333333333,0.0068319999999999,0.0205303333333333,0.0051633333333333,-0.3638959949696,-0.2944829852671999,0.8185857496192,0.0934272524032,0.0529993304576,-9.905436624,0.018105466326134,359.93714652987416,137.37413712973108,0.001452,0.001452,0.01094,0.363462,0.000569,-5.2e-05,0.931609,0.001452,0.001452,0.01094,2.152632,0.0,0.0,0.0110738666666666,0.0,0.0,-0.023922,0.0,0.0,0.0,-1.7769987080613987
2023-09-08 15:42:56.105,-0.3331918704768,0.3187223698815999,-0.052494744448,0.0927901241344,0.0927961241344,0.073514999552,48.359246,-4.55729,48.5545953714048,50.787003,0.5996567470464,0.5987717470592,0.5892863726336,0.0970515010261333,-0.0108576280064,-9.899764755349333,0.0086874955050666,0.0203852509610666,0.0052099999146666,33.61776500101547,0.1071133698559999,-0.0111064955178666,-9.889746612859732,0.0084626208255999,0.0200782511573333,0.0052193748565333,-0.361931,-0.288728,0.818437,0.094366,0.084428,-10.002702,0.0302807883037599,359.9667254003257,137.38366252869005,0.0014538749951999,0.0014538749951999,0.01094,0.3633845001984,0.0003665005184,0.0001411245056,0.9316389999232,0.0014538749951999,0.0014538749951999,0.01094,2.152632,0.0,0.0,0.0106802010077866,0.0,0.0,-0.0262669939968,0.0,0.0,0.0,-1.767473309102428
2023-09-08 15:42:56.120,-0.334252,0.319922,-0.053796,0.092993,0.092999,0.07362,48.359246,-4.55729,48.555438,50.787003,0.600349,0.599461,0.589841,0.096811,-0.010153,-9.898511,0.009741,0.02016,0.00523,33.617527,0.108319,-0.012157,-9.892592,0.009441,0.019807,0.005253,-0.3537717151872,-0.2914081364351999,0.8131854775935999,0.0940093734784,0.0498086022912,-10.0109685352704,0.037586031360582,359.984472843752,137.38937780708156,0.001455,0.001455,0.01094,0.363338,0.000245,0.000257,0.931657,0.001455,0.001455,0.01094,2.152632,0.0,0.0,0.010444,0.0,0.0,-0.027674,0.0,0.0,0.0,-1.7617580307109222
2023-09-08 15:42:56.145,-0.3354626219008,0.3215076209408,-0.0557509949952,0.0933317491328,0.0933371241344,0.0737962495488,48.3592453750016,-4.55729,48.556791121536,50.787003,0.6015158720128,0.600623497024,0.5907747476096,0.0949310048128,-0.0160036100224,-9.895114133696,0.0105128730239999,0.0188650033152,0.0053043748096,33.617817624256,0.0961177812352,-0.017935110208,-9.8894282580992,0.0102453729408,0.01891637728,0.0052661249664,-0.340173,-0.295875,0.804433,0.093415,-0.00789,-10.024746,0.0516592711758966,135.0126223670542,137.39747081521963,0.0014568749952,0.0014568749952,0.0109437499903999,0.363272375168,6.56254592e-05,0.0004582494848,0.9316826249344,0.0014568749952,0.0014568749952,0.0109437499903999,2.152632,0.0,0.0,0.00963000208384,0.0,0.0,-0.02825908183552,0.0,0.0,0.0,-1.7536650225728465
