timestamp,north_vel,east_vel,down_vel,north_vel_dev,east_vel_dev,down_vel_dev,lat,long,alt,undulation,lat_dev,long_dev,alt_dev,accel_x,accel_y,accel_z,gyro_x,gyro_y,gyro_z,temp,delta_vel_x,delta_vel_y,delta_vel_z,delta_angle_x,delta_angle_y,delta_angle_z,mag_x,mag_y,mag_z,accel_x.1,accel_y.1,accel_z.1,roll,pitch,yaw,roll_dev,pitch_dev,yaw_dev,w_quat,x_quat,y_quat,z_quat,roll_dev.1,pitch_dev.1,yaw_dev.1,heave_period,surge_motion,sway_motion,heave_motion,surge_accel,sway_accel,heave_accel,surge_vel,sway_vel,heave_vel,wave_angle
2023-09-08 15:13:42.520,-0.001996,0.028209,-0.007652,0.0835,0.083505,0.066636,48.359257,-4.557292,48.308095,50.787003,0.555728,0.554902,0.545383,-0.014403,-0.062418,-9.782968,-0.010806,0.002093,0.014055,34.333603,-0.012888,-0.067666,-9.828678,-0.010181,0.002012,0.014844,-0.244583,-0.392125,0.792999,-0.045016,-0.008608,-9.672419,359.99902597174827,359.4489291926432,124.8944288024276,0.001411,0.00141,0.012334,-0.46256,-0.00426,0.002232,-0.886575,0.001411,0.00141,0.012334,12.900632,0.0,0.0,0.007454,0.0,0.0,-0.001278,0.0,0.0,0.0,-14.256707035364885
2023-09-08 15:13:42.545,-0.001958500096,0.0303946194048,-0.0084826228736,0.0838299991552,0.0838356241535999,0.0668084995584,48.359257,-4.557292,48.3083268744064,50.787003,0.5566829975552,0.5558538725632,0.5461586230144,-0.014403,-0.062418,-9.782968,-0.010806,0.002093,0.014055,34.333603,-0.012888,-0.067666,-9.828678,-0.010181,0.002012,0.014844,-0.244583,-0.392125,0.792999,-0.045016,-0.008608,-9.672419,359.99902597174827,359.4489291926432,124.8944288024276,0.001411,0.00141,0.012334,-0.46256,-0.00426,0.002232,-0.886575,0.001411,0.00141,0.012334,12.900632,0.0,0.0,0.007454,0.0,0.0,-0.001278,0.0,0.0,0.0,-14.256707035364885
2023-09-08 15:13:42.560,-0.001936,0.031706,-0.008981,0.084028,0.084034,0.066912,48.359257,-4.557292,48.308466,50.787003,0.557256,0.556425,0.546624,-0.014403,-0.062418,-9.782968,-0.010806,0.002093,0.014055,34.333603,-0.012888,-0.067666,-9.828678,-0.010181,0.002012,0.014844,-0.2526912845952,-0.3906208685824,0.7997797789312,-0.0441118711424,-0.0204441755008,-9.8263031565696,359.99902597174827,359.4489291926432,124.8944288024276,0.001411,0.00141,0.012334,-0.46256,-0.00426,0.002232,-0.886575,0.001411,0.00141,0.012334,12.900632,0.0,0.0,0.007454,0.0,0.0,-0.001278,0.0,0.0,0.0,-14.256707035364885
2023-09-08 15:13:42.580,-0.002224,0.031146,-0.0075669999999999,0.082803,0.0828085,0.0662875,48.359257,-4.557292,48.306642,50.787003,0.5559679999999999,0.555141,0.545903,-0.03617,-0.064626,-9.80936,-0.012331,0.0031,0.019258,34.33358749999999,-0.0341285,-0.0539605,-9.7884395,-0.011844,0.003257,0.020051,-0.2635022845952,-0.3886153685824,0.8088207789312001,-0.0429063711424,-0.0362256755008,-10.0314811565696,359.98226695624066,359.45546091150766,124.92127187512948,0.0014039999999999,0.0014035,0.0123314999999999,-0.462353,-0.0041425,0.0023344999999999,-0.886683,0.0014039999999999,0.0014035,0.0123314999999999,12.900632,0.0,0.0,0.007454,0.0,0.0,-0.001278,0.0,0.0,0.0,-14.229863962663003
2023-09-08 15:13:42.585,-0.0022959990784,0.031006001792,-0.0072135045247999,0.08249675392,0.0825021289216,0.0661313769984,48.359257,-4.557292,48.3061860058368,50.787003,0.5556460041215999,0.5548200041088001,0.5457227523072,-0.0416116803456,-0.0651779929344,-9.8159579155456,-0.01271224512,0.0033517467776,0.0205587333504,34.3335836250496,-0.0394385570304,-0.0505341688576,-9.7783800037632,-0.0122597446784,0.003568246016,0.0213527333376,-0.266205,-0.388114,0.811081,-0.042605,-0.040171,-10.082775,359.9780772559927,359.45709382032226,124.92798255740712,0.0014022500223999,0.0014018750208,0.012330875008,-0.4623012506624,-0.004113125376,0.002360124672,-0.8867099996544,0.0014022500223999,0.0014018750208,0.012330875008,12.900632,0.0,0.0,0.0074440251276799,0.0,0.0,-0.00127026259904,0.0,0.0,0.0,-14.22315328038536
2023-09-08 15:13:42.600,-0.002512,0.030586,-0.006153,0.081578,0.081583,0.065663,48.359257,-4.557292,48.304818,50.787003,0.55468,0.553857,0.545182,-0.057937,-0.066834,-9.835752,-0.013856,0.004107,0.024461,34.333572,-0.055369,-0.040255,-9.748201,-0.013507,0.004502,0.025258,-0.2650567451008,-0.392840895168,0.8094467430272,-0.0538227978624,0.0084580824832,-9.9917366115712,359.9655079407331,359.4619926303721,124.94811494783136,0.001397,0.001397,0.012329,-0.462146,-0.004025,0.002437,-0.886791,0.001397,0.001397,0.012329,12.900632,0.0,0.0,0.0074141,0.0,0.0,-0.00124705,0.0,0.0,0.0,-14.203020889961124
2023-09-08 15:13:42.625,-0.0027413744128,0.0298466268927999,-0.0073523719295999,0.0819067491584,0.0819117491584,0.065837999552,48.359257,-4.557292,48.3050536243968,50.787003,0.5555974976511999,0.5547713726592001,0.5459388730624001,-0.0746950820992,-0.050246542464,-9.8053889527296,-0.0122891290112,0.0042426246528,0.0305378594431999,34.3338201243648,-0.0817976823424,-0.0397350013312,-9.8020327371904,-0.012353877952,0.00443950016,0.0313779843328,-0.263143,-0.400719,0.806723,-0.072519,0.089506,-9.840007,359.946922669832,359.4694768724113,124.9975324311523,0.0013988749952,0.0013988749952,0.0123252500096,-0.461764750976,-0.0038931253376,0.0025488747136,-0.8869903744895999,0.0013988749952,0.0013988749952,0.0123252500096,12.900632,0.0,0.0,0.00736422512768,0.0,0.0,-0.00120836259904,0.0,0.0,0.0,-14.153603406640189
2023-09-08 15:13:42.640,-0.002879,0.029403,-0.008072,0.082104,0.082109,0.065943,48.359257,-4.557292,48.305195,50.787003,0.556148,0.55532,0.546393,-0.08475,-0.040294,-9.787171,-0.011349,0.004324,0.034184,34.333969,-0.097655,-0.039423,-9.834332,-0.011662,0.004402,0.03505,-0.2619039947136,-0.394930850304,0.8081585061248,-0.0884738180736,0.0434396784511999,-9.8249593107968,359.93577143116585,359.4739674482904,125.0271831235594,0.0014,0.0014,0.012323,-0.461536,-0.003814,0.002616,-0.88711,0.0014,0.0014,0.012323,12.900632,0.0,0.0,0.0073342999999999,0.0,0.0,-0.00118515,0.0,0.0,0.0,-14.123952714233084
2023-09-08 15:13:42.665,-0.003383686208,0.0278761289088,-0.0082491870464,0.0819904065408,0.0819952502912,0.0658878438912,48.359257,-4.557292,48.3051021877376,50.787003,0.5564728429183999,0.5556432804224001,0.5467572178176,-0.1109505579264,-0.0394615021312,-9.8018172125056,-0.0106215018624,0.0046683741184,0.0394346115584,34.33410962464,-0.111833088704,-0.0467267313024,-9.8161676715008,-0.0111745012479999,0.0046319994112,0.039981237376,-0.259839,-0.385284,0.810551,-0.115065,-0.033337,-9.79988,359.91822464360985,359.4820246466579,125.08694963056134,0.0014018749951999,0.0014012499968,0.0123192500096,-0.461073501184,-0.0036821253376,0.0027172497408,-0.8873499993856,0.0014018749951999,0.0014012499968,0.0123192500096,12.900632,0.0,0.0,0.00728442512768,0.0,0.0,-0.00114646259904,0.0,0.0,0.0,-14.064186207231144
2023-09-08 15:13:42.680,-0.0036865,0.0269599999999999,-0.0083555,0.08192225,0.081927,0.06585475,48.359257,-4.557292,48.3050465,50.787003,0.55666775,0.5558372500000001,0.54697575,-0.126671,-0.038962,-9.810605,-0.010185,0.004875,0.042585,34.334194,-0.12034,-0.051109,-9.805269,-0.010882,0.00477,0.04294,-0.2592588725248,-0.3853076251008,0.8101208731648,-0.1275668970912,-0.0308457706208,-9.7971780197216,359.9076964992044,359.4868589986808,125.12280977956674,0.001403,0.001402,0.012317,-0.460796,-0.003603,0.002778,-0.887494,0.001403,0.001402,0.012317,12.900632,0.0,0.0,0.0072545,0.0,0.0,-0.00112325,0.0,0.0,0.0,-14.028326058225744
2023-09-08 15:13:42.800,-0.006109,0.019631,-0.009206,0.081377,0.081381,0.06559,48.359257,-4.557292,48.304601,50.787003,0.558227,0.557389,0.548724,-0.184007,-0.0188275,-9.83081975,0.0026099999999999,0.0027525,0.0576742499999999,34.332669249999995,-0.19613575,-0.0278199999999999,-9.8622165,0.0029847499999999,0.00224175,0.05800375,-0.2546178725248,-0.3854966251008,0.8066798731647999,-0.2275816470912,-0.0109160206208,-9.7755622697216,359.90516116096103,359.51440394468176,125.50418481195072,0.0014,0.001399,0.01231025,-0.4578394999999999,-0.0033885,0.002676,-0.8890225,0.0014,0.001399,0.01231025,12.900632,0.0,0.0,0.0070151,0.0,0.0,-0.00093755,0.0,0.0,0.0,-13.64695102584176
2023-09-08 15:13:42.825,-0.0040571302528,0.0164178832255999,-0.0109597455104,0.0817057491584,0.0817097491584,0.0657649995519999,48.359257,-4.557292,48.3048653743232,50.787003,0.5591451226496,0.5583027476608,0.5494827480576,-0.1959519694208,-0.0146328232384,-9.8350311454688,0.005275618176,0.002310313632,0.0608178357023999,34.3323515945632,-0.2119264908256,-0.0229681374208,-9.874080532128,0.0058736488544,0.0017150325983999,0.061142023216,-0.253651,-0.385536,0.805963,-0.248418,-0.006764,-9.771059,359.90463296684584,359.520142460408,125.58363774029736,0.0013993750016,0.0013983750016,0.0123088437536,-0.4572235640768,-0.0033438126144,0.0026547500543999,-0.8893409366848,0.0013993750016,0.0013983750016,0.0123088437536,12.900632,0.0,0.0,0.00696522512768,0.0,0.0,-0.00089886259904,0.0,0.0,0.0,-13.567498097495118
2023-09-08 15:13:42.840,-0.002826,0.01449,-0.012012,0.081903,0.081907,0.06587,48.359257,-4.557292,48.305024,50.787003,0.559696,0.558851,0.549938,-0.203119,-0.012116,-9.837558,0.006875,0.002045,0.062704,34.332161,-0.221401,-0.020057,-9.881199,0.007607,0.001399,0.063025,-0.2642605452672,-0.3885851380096,0.8098978917888,-0.2524878923648,-0.0057259955712,-9.8170094460544,359.9043160482132,359.52358559334874,125.63130982274537,0.001399,0.001398,0.012308,-0.456854,-0.003317,0.002642,-0.889532,0.001399,0.001398,0.012308,12.900632,0.0,0.0,0.0069352999999999,0.0,0.0,-0.00087565,0.0,0.0,0.0,-13.519826015047116
2023-09-08 15:13:42.865,-0.0004803810047999,0.0103631355648,-0.0125341861632,0.0822323741568,0.0822363741567999,0.0660437495552,48.359257,-4.557292,48.30530524928,50.787003,0.560630372608,0.5597816226176,0.5507058105344,-0.247237637056,-0.0129197479424,-9.8495417193216,0.00760937312,2.8130163199999864e-05,0.0663058657792,34.3317197511296,-0.2506321751679999,-0.0154557617791999,-9.8548534424448,0.0077213747072,-0.0002784957055999,0.066684365632,-0.281943,-0.393667,0.816456,-0.259271,-0.003996,-9.893593,359.9132326810733,359.5230484467909,125.72785296407385,0.0014002499967999,0.0013998749951999,0.0123055000064,-0.45610400192,-0.0033588748928,0.0025720001792,-0.889916374016,0.0014002499967999,0.0013998749951999,0.0123055000064,12.900632,0.0,0.0,0.00688542512768,0.0,0.0,-0.00083696259904,0.0,0.0,0.0,-13.423282873718634
2023-09-08 15:13:42.880,0.000927,0.007887,-0.0128475,0.08243,0.082434,0.066148,48.359257,-4.557292,48.305474,50.787003,0.561191,0.5603400000000001,0.5511665,-0.273709,-0.013402,-9.856732,0.00805,-0.001182,0.068467,34.331455,-0.268171,-0.012695,-9.839046,0.00779,-0.001285,0.06888,-0.275442347264,-0.3927814337216,0.8143846786623999,-0.2305837526015999,-0.0117245954752,-9.9078666859008,359.91858269731193,359.522726156656,125.78577924431262,0.001401,0.001401,0.012304,-0.455654,-0.003384,0.00253,-0.890147,0.001401,0.001401,0.012304,12.900632,0.0,0.0,0.0068555,0.0,0.0,-0.00081375,0.0,0.0,0.0,-13.36535659347986
2023-09-08 15:13:42.920,0.00468,0.001284,-0.013683,0.082957,0.082961,0.066426,48.359257,-4.557292,48.305924,50.787003,0.562686,0.561829,0.552395,-0.2157309999999999,-0.005738,-9.8371585,0.00926,-0.003771,0.073192,34.331590500000004,-0.203863,-0.014088,-9.830377,0.008496,-0.0037289999999999,0.0734265,-0.258107347264,-0.3904199337216,0.8088611786624,-0.1540847526015999,-0.0323340954752,-9.9459296859008,359.93551360015806,359.51183995854853,125.9598151745836,0.0014039999999999,0.0014034999999999,0.012304,-0.454329,-0.003528,0.002435,-0.890824,0.001404,0.001404,0.012308,12.900632,0.0,0.0,0.0067757,0.0,0.0,-0.00075185,0.0,0.0,0.0,-13.191320663208884
2023-09-08 15:13:42.945,0.0052037486592,-0.0004884954623999,-0.0135911252352,0.0832876241536,0.0832916241535999,0.0665991245568,48.359257,-4.557292,48.3061889993216,50.787003,0.5636378725632,0.5627771225728,0.5531724980096,-0.1794948427648,-0.0009480122623999,-9.8249250938176,0.010016248064,-0.0053891208576,0.0761451174399999,34.3316751872832,-0.1636706028928,-0.0149586227712,-9.8249588888704,0.0089372488704,-0.0052564960895999,0.0762680552256,-0.247273,-0.388944,0.805409,-0.106273,-0.045215,-9.969719,359.9460953873474,359.5050361021493,126.06858735254548,0.0014058749952,0.0014050624959999,0.012304,-0.4534652522112,-0.0036323747327999,0.0023768751488,-0.8912633738751999,0.0014058749952,0.0014052499967999,0.0123055000064,12.900632,0.0,0.0,0.00672582512768,0.0,0.0,-0.0007131625990399,0.0,0.0,0.0,-13.082548485247004
2023-09-08 15:13:42.960,0.005518,-0.001552,-0.013536,0.083486,0.08349,0.066703,48.359257,-4.557292,48.306348,50.787003,0.564209,0.563346,0.553639,-0.157753,0.001926,-9.817585,0.01047,-0.00636,0.077917,34.331726,-0.139555,-0.015481,-9.821708,0.009202,-0.006173,0.077973,-0.2616681864192,-0.3882869971968,0.8051134987392,-0.0785071315328,-0.0276679251327999,-9.9794142913664,359.95244450300413,359.50095376044106,126.1338511048546,0.001407,0.001406,0.012304,-0.452947,-0.003695,0.002342,-0.891527,0.001407,0.001406,0.012304,12.900632,0.0,0.0,0.0066958999999999,0.0,0.0,-0.0006899499999999,0.0,0.0,0.0,-13.01728473293788
2023-09-08 15:13:42.980,0.002229,-0.0027524999999999,-0.011491,0.0819485,0.081954,0.065818,48.359257,-4.557292,48.300839,50.787003,0.5529109999999999,0.5520965,0.5432604999999999,-0.0828334999999999,0.0216365,-9.813758,0.0114635,-0.0061255,0.0770375,34.331457,-0.0765045,0.020073,-9.801061,0.0113095,-0.005941,0.076926,-0.2808616864192,-0.3874109971968,0.8047194987392,-0.0414861315328,-0.0042719251327999,-9.9923412913664,359.9666252084336,359.4954820134976,126.22088339393495,0.0014,0.001399,0.0123025,-0.452269,-0.0037949999999999,0.0022505,-0.8918705,0.0014,0.001399,0.0123025,12.900632,0.0,0.0,0.006656,0.0,0.0,-0.000659,0.0,0.0,0.0,-12.930252443857526
2023-09-08 15:13:42.985,0.0014067605248,-0.0030526211584,-0.010979756544,0.08156412992,0.0815700049152,0.065596752832,48.359257,-4.557292,48.2994617676288,50.787003,0.5500865361536,0.5492841609983999,0.5406659082112,-0.0641038647424,0.0265640619264,-9.8128012622464,0.0117118718208,-0.0060668757504,0.0768176278144,34.3313897508608,-0.0607420767616,0.0289613862272,-9.7958993160704,0.011836368256,-0.0058830007423999,0.0766642533504,-0.28566,-0.387192,0.804621,-0.032231,0.001577,-9.995573,359.97017033941273,359.49411409427125,126.24264118770174,0.0013982500224,0.0013972500223999,0.0123021250048,-0.4520995021696,-0.00381999968,0.0022276252928,-0.8919563739008,0.0013982500224,0.0013972500223999,0.0123021250048,12.900632,0.0,0.0,0.0066537500288,0.0,0.0,-0.00063960024832,0.0,0.0,0.0,-12.908494650090743
2023-09-08 15:13:43.000,-0.00106,-0.003953,-0.009446,0.080411,0.080418,0.064933,48.359257,-4.557292,48.29533,50.787003,0.541613,0.540847,0.532882,-0.007914,0.041347,-9.809931,0.012457,-0.005891,0.076158,34.331188,-0.013454,0.055627,-9.780414,0.013417,-0.005709,0.075879,-0.280807479296,-0.3909300159488,0.8057175046784,-0.0311686204672,0.014113303488,-9.8907360526976,359.9808059138631,359.49001026655407,126.30791568301534,0.001393,0.001392,0.012301,-0.451591,-0.003895,0.002159,-0.892214,0.001393,0.001392,0.012301,12.900632,0.0,0.0,0.0066469999999999,0.0,0.0,-0.0005813999999999,0.0,0.0,0.0,-12.843220154777145
2023-09-08 15:13:43.025,-0.0034787438079999,-0.0047523729536,-0.0088891264256,0.0807403741568,0.0807473741568,0.0651092495488,48.359257,-4.557292,48.2955943743232,50.787003,0.5424936227456,0.5417244977536,0.5336132481279999,-0.0286526969088,0.046240737472,-9.7851335634816,0.0140988707968,-0.0050741270912,0.0736117565184,34.3313717495296,-0.031132079744,0.0516357602176,-9.7981164546816,0.0148226214016,-0.0049727518848,0.0732690066816,-0.27272,-0.39716,0.807545,-0.029398,0.035007,-9.716009,135.00150700489672,359.4846746107462,126.41051067556212,0.0013942499968,0.0013938749952,0.0123003750016,-0.450791002048,-0.0040174996864,0.0020196253568,-0.8926177489664,0.0013942499968,0.0013938749952,0.0123003750016,12.900632,0.0,0.0,0.0066357500288,0.0,0.0,-0.00048440024832,0.0,0.0,0.0,-12.74062516223036
2023-09-08 15:13:43.040,-0.00493,-0.005232,-0.008555,0.080938,0.080945,0.065215,48.359257,-4.557292,48.295753,50.787003,0.543022,0.542251,0.534052,-0.041096,0.049177,-9.770255,0.015084,-0.004584,0.072084,34.331482,-0.041739,0.049241,-9.808738,0.015666,-0.004531,0.071703,-0.273860004864,-0.3936061098368,0.8091758819584,-0.038244287744,0.0303434801024,-9.7537157858816,0.0130061419494696,359.4814731954066,126.47206809132032,0.001395,0.001395,0.0123,-0.450311,-0.004091,0.001936,-0.89286,0.001395,0.001395,0.0123,12.900632,0.0,0.0,0.0066289999999999,0.0,0.0,-0.0004262,0.0,0.0,0.0,-12.679067746472157
2023-09-08 15:13:43.065,-0.0052984365568,-0.0050305942656,-0.0084168753536,0.0808615939456,0.080868437696,0.065179062592,48.359257,-4.557292,48.2953375323136,50.7871590933504,0.5433951240448,0.5426224052992,0.534442624,-0.0336278941184,0.0315701700735999,-9.7909418220416,0.01478712576,-0.0039146267136,0.0696465062399999,34.3320276236032,-0.0352565165952,0.032519167808,-9.8082523762432,0.0148985019648,-0.0037666269568,0.0694798806912,-0.27576,-0.387683,0.811894,-0.052988,0.022571,-9.81656,0.0314123639979982,359.4778205988133,126.56768017861522,0.0013968749951999,0.0013962499968,0.0123,-0.4495647519104,-0.0041934997376,0.0018035003392,-0.8932356240384,0.0013968749951999,0.0013962499968,0.0123,12.900632,0.0,0.0,0.0066177500288,0.0,0.0,-0.00032920024832,0.0,0.0,0.0,-12.58345565917726
2023-09-08 15:13:43.080,-0.0055195,-0.00490975,-0.008334,0.0808157499999999,0.0808225,0.0651575,48.359257,-4.557292,48.29508825,50.78725275,0.543619,0.5428452500000001,0.534677,-0.029147,0.021006,-9.803354,0.014609,-0.003513,0.068184,34.332355,-0.031367,0.022486,-9.807961,0.014438,-0.003308,0.068146,-0.2769381300266667,-0.3860719931264,0.8125067526144,-0.0567143908992,0.0194876118442666,-9.814784367424,0.042456172619194,359.4756290258963,126.62504782262026,0.001398,0.001397,0.0123,-0.449117,-0.004255,0.001724,-0.893461,0.001398,0.001397,0.0123,12.900632,0.0,0.0,0.006611,0.0,0.0,-0.000271,0.0,0.0,0.0,-12.52608801517222
2023-09-08 15:13:43.180,-0.00699325,-0.004104125,-0.0077815,0.080510125,0.08051625,0.06501375,48.359257,-4.557292,48.293426375,50.787877125,0.5451115,0.544330875,0.5362395,-0.066332,0.005426,-9.795410666666667,0.0113031666666666,-0.0003938333333333,0.0642031666666666,34.332355,-0.0689678333333333,0.0046268333333333,-9.795677666666668,0.010753,-0.0002596666666666,0.0640601666666666,-0.2847922966933333,-0.3753319931264,0.8165917526144,-0.0815568908992,-0.0010682214890666,-9.802946867424,0.105529276566512,359.47572451886214,126.99207503688449,0.001393,0.0013928333333333,0.0123058333333333,-0.4462503333333333,-0.004505,0.0012173333333333,-0.8948951666666667,0.001393,0.0013928333333333,0.0123058333333333,12.900632,0.0,0.0,0.006566,0.0,0.0,0.000117,0.0,0.0,0.0,-12.159060800907994
2023-09-08 15:13:43.185,-0.0070669365568,-0.0040638442656,-0.0077538753536,0.0804948439456,0.080500937696,0.065006562592,48.359257,-4.557292,48.2933432823136,50.7879083433504,0.5451861240447999,0.5444051552992,0.536317624,-0.0681912262016,0.0046470099711999,-9.795013505083734,0.0111378771157333,-0.0002378769962666,0.0640041275477333,34.332355,-0.0708478509354666,0.0037338864298666,-9.795063507861334,0.0105687523584,-0.0001072519509333,0.0638558776149333,-0.285185,-0.374795,0.816796,-0.082799,-0.002096,-9.802355,0.1086828913970914,359.4757292934493,127.01042616270028,0.0013927500032,0.0013926250026666,0.0123061249962666,-0.4461070018346666,-0.00451749984,0.0011920003242666,-0.8949668740821334,0.0013927500032,0.0013926250026666,0.0123061249962666,12.900632,0.0,0.0,0.00655828759872,0.0,0.0,9.9500224e-05,0.0,0.0,0.0,-12.140709675092197
2023-09-08 15:13:43.200,-0.007288,-0.003943,-0.007671,0.080449,0.080455,0.064985,48.359257,-4.557292,48.293094,50.788002,0.54541,0.544628,0.536552,-0.073769,0.00231,-9.793822,0.010642,0.00023,0.063407,34.332355,-0.076488,0.001055,-9.793221,0.010016,0.00035,0.063243,-0.282863740096,-0.3737213704192,0.8150807426816,-0.0768499746176,-0.0064730186752,-9.8057622645376,0.1181438973559757,359.4757436174553,127.06548047973732,0.001392,0.001392,0.012307,-0.445677,-0.004555,0.001116,-0.895182,0.001392,0.001392,0.012307,12.900632,0.0,0.0,0.00653515,0.0,0.0,4.7e-05,0.0,0.0,0.0,-12.085655358055163
2023-09-08 15:13:43.225,-0.007119250432,-0.0037392505216,-0.00787412448,0.0807777491584,0.0807837491584,0.0651612495488,48.359257,-4.557292,48.293328374400005,50.788002,0.5462962477312,0.5455098727424,0.5372882481152,-0.075443995712,-0.0060906034944,-9.7954557458176,0.0083538808576,0.0002287500032,0.0628445014399999,34.3326149993344,-0.0756623771136,-0.0068943546496,-9.7973359894656,0.0080903799296,0.0002450002688,0.062814876096,-0.278995,-0.371932,0.812222,-0.066935,-0.013768,-9.811441,0.1258429980182979,359.47692533988254,127.15493328650234,0.0013938749952,0.0013932499968,0.0123057500032,-0.4449782517887999,-0.0045762499456,0.0010478751744,-0.895528874112,0.0013938749952,0.0013932499968,0.0123057500032,12.900632,0.0,0.0,0.00649658759872,0.0,0.0,-4.049977600000001e-05,0.0,0.0,0.0,-11.99620255129014
2023-09-08 15:13:43.240,-0.007018,-0.003617,-0.007996,0.080975,0.080981,0.065267,48.359257,-4.557292,48.293469,50.788002,0.546828,0.546039,0.53773,-0.076449,-0.011131,-9.796436,0.006981,0.000228,0.062507,34.332771,-0.075167,-0.011664,-9.799805,0.006935,0.000182,0.062558,-0.2802340052864,-0.3777205246976,0.8107864938752,-0.0753627859584,-0.0119991174528,-9.8059536015872,0.1304624899512884,359.47763437817923,127.208605336961,0.001395,0.001394,0.012305,-0.444559,-0.004589,0.001007,-0.895737,0.001395,0.001394,0.012305,12.900632,0.0,0.0,0.0064734499999999,0.0,0.0,-9.3e-05,0.0,0.0,0.0,-11.94253050083148
2023-09-08 15:13:43.265,-0.0071144060032,-0.0035784063488,-0.0079357657791999,0.08107460912,0.0810805309952,0.0653227029824,48.359257,-4.557292,48.2938470459072,50.7879239533248,0.5474280765888,0.5466365765952,0.5382736704832001,-0.07352713248,-0.0164891112832,-9.7940103812096,0.0049797551231999,0.00018112512,0.0626519996288,34.3327141251456,-0.0738595033472,-0.0166021123584,-9.7952450116736,0.0047925054848,0.0001338751232,0.0626836246784,-0.282299,-0.387368,0.808394,-0.089409,-0.009051,-9.796808,0.1332914618225603,359.4787444810654,127.29780747533236,0.0013968749951999,0.0013958749952,0.0123043750016,-0.4438608767872,-0.004592124992,0.0009770000768,-0.8960832491135999,0.0013968749951999,0.0013958749952,0.0123043750016,12.900632,0.0,0.0,0.00643488759872,0.0,0.0,-0.000180499776,0.0,0.0,0.0,-11.853328362460118
2023-09-08 15:13:43.280,-0.00717225,-0.00355525,-0.007899625,0.081134375,0.08114025,0.065356125,48.359257,-4.557292,48.294073875,50.787877125,0.547788125,0.546995125,0.5385998750000001,-0.071774,-0.019704,-9.792555,0.003779,0.000153,0.062739,34.33268,-0.073075,-0.019565,-9.792509,0.003507,0.000105,0.062759,-0.282567126144,-0.38641602093824,0.8078111725132799,-0.0881651196928,-0.01087785779456,-9.79683102509824,0.1349888565328219,359.4794105473441,127.35132912372808,0.001398,0.001397,0.012304,-0.443442,-0.004594,0.000959,-0.896291,0.001398,0.001397,0.012304,12.900632,0.0,0.0,0.00641175,0.0,0.0,-0.000233,0.0,0.0,0.0,-11.799806714064404
2023-09-08 15:13:43.465,-0.0078856560032,-0.0032696563488,-0.0074538907792,0.08187148412,0.0818767809952,0.0657683279824,48.359257,-4.557292,48.2968714209072,50.7872995783248,0.5522287015888,0.5514172015952,0.5426230454832,-0.0671693515929599,-0.0228397489152,-9.80038697229056,-0.0077881209984,-0.00074054969088,0.0644918743935999,34.33150155040768,-0.0691853763456,-0.02352122363136,-9.79785179815168,-0.0077474711065599,-0.00091897464576,0.0645026243967999,-0.285874,-0.374675,0.800623,-0.072824,-0.033409,-9.797115,0.0682636471896977,359.4861413667139,128.0284389526143,0.00139615000064,0.00139515000064,0.012304,-0.43814082683392,-0.00429245010432,0.00142982483712,-0.89889394909952,0.00139615000064,0.00139515000064,0.012304,12.900632,0.0,0.0,0.00612638759872,0.0,0.0,-0.0008804997759999,0.0,0.0,0.0,-11.122696885178186
2023-09-08 15:13:43.480,-0.0079435,-0.0032465,-0.00741775,0.08193125,0.0819365,0.0658017499999999,48.359257,-4.557292,48.29709825,50.78725275,0.55258875,0.55177575,0.5429492499999999,-0.066796,-0.023094,-9.801022,-0.008726,-0.000813,0.064634,34.331406,-0.06887,-0.023842,-9.798285,-0.00866,-0.001002,0.064644,-0.2852471848256,-0.3741218726399999,0.8013321280255999,-0.072075871808,-0.028252728,-9.7989324452544,0.0628534701258513,359.4866871113423,128.0833400027872,0.001396,0.001395,0.012304,-0.437711,-0.004268,0.001468,-0.899105,0.001396,0.001395,0.012304,12.900632,0.0,0.0,0.00610325,0.0,0.0,-0.0009329999999999,0.0,0.0,0.0,-11.067795835005285
2023-09-08 15:13:43.545,-0.0081941560032,-0.0031461563488,-0.0072611407792,0.08219023412,0.0821952809952,0.0659465779824,48.359257,-4.557292,48.2980811709072,50.7870498283248,0.5541489515888001,0.5533294515952,0.5443627954832,-0.0654667513087999,-0.0135942593536,-9.8063877447168,-0.0083433128768,-0.0010136873023999,0.0647063124288,34.3316318747776,-0.0652486910656,-0.0130097606656,-9.8061719297344,-0.0082383129152,-0.0009483750528,0.0648235623232,-0.282531,-0.371725,0.804405,-0.068834,-0.005909,-9.806808,0.0251457223614691,359.4866871113423,128.32439027182917,0.0014000624959999,0.0013998749951999,0.0123072499968,-0.4358195018624,-0.0041274376384,0.0017548122176,-0.9000223115968,0.0014000624959999,0.0013998749951999,0.0123072499968,12.900632,0.0,0.0,0.00600298759872,0.0,0.0,-0.001160499776,0.0,0.0,0.0,-10.826745565963307
2023-09-08 15:13:43.560,-0.008252,-0.003123,-0.007225,0.08225,0.082255,0.06598,48.359257,-4.557292,48.298308,50.787003,0.554509,0.553688,0.544689,-0.06516,-0.011402,-9.807626,-0.008255,-0.00106,0.064723,34.331684,-0.064413,-0.01051,-9.807992,-0.008141,-0.000936,0.064865,-0.2850532607616,-0.3692552394624,0.801584987968,-0.0683431229056,-0.0105586448384,-9.805187993088,0.0164438887202546,359.4866871113423,128.38001754910596,0.001401,0.001401,0.012308,-0.435383,-0.004095,0.001821,-0.900234,0.001401,0.001401,0.012308,12.900632,0.0,0.0,0.00597985,0.0,0.0,-0.001213,0.0,0.0,0.0,-10.771118288686525
2023-09-08 15:13:43.580,-0.0085215,-0.0039205,-0.0073884999999999,0.081256,0.0812605,0.0654635,48.359257,-4.557292,48.2985105,50.7875025,0.553545,0.5527275,0.5441545,-0.071189,-0.011646,-9.8076185,-0.00719,-0.000923,0.064777,34.3320445,-0.0708429999999999,-0.0117124999999999,-9.8079,-0.006977,-0.000923,0.06481,-0.2884162607616,-0.3659622394624,0.7978249879679999,-0.0676886229056,-0.0167581448384,-9.803027993088,0.0085084232576927,359.48677305501155,128.45301237220565,0.001396,0.0013954999999999,0.0123069999999999,-0.4348095,-0.0040655,0.0018805,-0.9005110000000001,0.001396,0.0013954999999999,0.0123069999999999,12.900632,0.0,0.0,0.005949,0.0,0.0,-0.001283,0.0,0.0,0.0,-10.698123465586832
2023-09-08 15:13:43.585,-0.0085888741376,-0.004119872448,-0.0074293744767999,0.0810075031808,0.0810118781824,0.0653343766528,48.359257,-4.557292,48.298561124352,50.7876273734016,0.5533040030848,0.5524873780736,0.5440208767104,-0.0726962307072,-0.0117069992192,-9.807616625024,-0.006923753408,-0.0008887504384,0.0647904998272,34.3321346238464,-0.072450479424,-0.012013121152,-9.8078770002944,-0.0066860037248,-0.0009197500416,0.0647962501759999,-0.289257,-0.365139,0.796885,-0.067525,-0.018308,-9.802488,0.0065245822855417,359.4867945406539,128.4712608443971,0.001394750016,0.0013941250176,0.0123067500032,-0.4346661268352,-0.0040581250944,0.0018953748096,-0.9005802491136,0.001394750016,0.0013941250176,0.0123067500032,12.900632,0.0,0.0,0.00594332507264,0.0,0.0,-0.00127690007808,0.0,0.0,0.0,-10.679874993395371
2023-09-08 15:13:43.600,-0.008791,-0.004718,-0.007552,0.080262,0.080266,0.064947,48.359257,-4.557292,48.298713,50.788002,0.552581,0.551767,0.54362,-0.077218,-0.01189,-9.807611,-0.006125,-0.000786,0.064831,34.332405,-0.077273,-0.012915,-9.807808,-0.005813,-0.00091,0.064755,-0.2900546284032,-0.3686632650368,0.8060710391936,-0.0651178647296,-0.011884222592,-9.8040101314944,0.0005729577951308,359.4868589986808,128.5260071953053,0.001391,0.00139,0.012306,-0.434236,-0.004036,0.00194,-0.900788,0.001391,0.00139,0.012306,12.900632,0.0,0.0,0.0059263,0.0,0.0,-0.0012586,0.0,0.0,0.0,-10.62512864248717
2023-09-08 15:13:43.625,-0.008769125056,-0.004589875328,-0.0076726246912,0.08059012416,0.0805947491584,0.0651232495488,48.359257,-4.557292,48.2988979995264,50.788002,0.5534709977216,0.5526532477312001,0.5443612481024,-0.0732111352576,-0.0075700110592,-9.8096316198272,-0.0047912534144,-0.000889124736,0.0649097497984,34.3325624995968,-0.0738517587584,-0.0063118919039999,-9.8096511202816,-0.0046311280255999,-0.0009831248128,0.0647962498944,-0.291384,-0.374537,0.821381,-0.061106,-0.001178,-9.806547,224.99215461805068,359.4865367107461,128.61825316417108,0.0013922499967999,0.0013918749951999,0.0123053750016,-0.433511001856,-0.0040103750656,0.0019999998464,-0.9011367491072,0.0013922499967999,0.0013918749951999,0.0123053750016,12.900632,0.0,0.0,0.00589792507264,0.0,0.0,-0.00122810007808,0.0,0.0,0.0,-10.5328826736214
2023-09-08 15:13:43.640,-0.008756,-0.004513,-0.007745,0.080787,0.080792,0.065229,48.359257,-4.557292,48.299009,50.788002,0.554005,0.553185,0.544806,-0.070807,-0.004978,-9.810844,-0.003991,-0.000951,0.064957,34.332657,-0.071799,-0.00235,-9.810757,-0.003922,-0.001027,0.064821,-0.2916412510976,-0.3733242448256,0.8153213491456001,-0.068966033536,-0.0053498928,-9.8078340054912,359.98802518208174,359.48634333666524,128.673601123331,0.001393,0.001393,0.012305,-0.433076,-0.003995,0.002036,-0.901346,0.001393,0.001393,0.012305,12.900632,0.0,0.0,0.0058809,0.0,0.0,-0.0012098,0.0,0.0,0.0,-10.477534714461484
2023-09-08 15:13:43.665,-0.0087826665984,-0.0048082770218666,-0.0077245833856,0.0806847085952,0.0806898474837333,0.0651660834943999,48.35925693055573,-4.557292,48.29839601545813,50.788002,0.5530147942015999,0.5521990997461333,0.543877877376,-0.0730563692416,-0.0090198646528,-9.810315876352,-0.0024710038912,-0.0008741251968,0.064400751424,34.3335488727168,-0.0735733704576,-0.008559359104,-9.8104688757376,-0.0023326290688,-0.0008526254464,0.0644222510208,-0.29207,-0.371303,0.805222,-0.082066,-0.012303,-9.809979,359.9838354389306,359.4864507659768,128.76445051114638,0.0013948749952,0.0013948749952,0.0123037500032,-0.4323616268288,-0.0039800000384,0.0020653749248,-0.9016891241216,0.0013948749952,0.0013948749952,0.0123037500032,12.900632,0.0,0.0,0.00585252507264,0.0,0.0,-0.00117930007808,0.0,0.0,0.0,-10.386685326646102
2023-09-08 15:13:43.680,-0.0087986666666666,-0.0049854444444444,-0.0077123333333333,0.0806233333333333,0.0806285555555555,0.0651283333333333,48.359256888888886,-4.557292,48.29802822222222,50.788002,0.5524206666666667,0.5516075555555556,0.543321,-0.074406,-0.011445,-9.809999,-0.001559,-0.000828,0.064067,34.334084,-0.074638,-0.012285,-9.810296,-0.001379,-0.000748,0.064183,-0.2920806607597714,-0.3711336599917714,0.8050057847917714,-0.0823178939318857,-0.0124685899922285,-9.809732409662171,359.9813215758787,359.48651522400377,128.81896051595567,0.001396,0.001396,0.012303,-0.431933,-0.003971,0.002083,-0.901895,0.001396,0.001396,0.012303,12.900632,0.0,0.0,0.0058355,0.0,0.0,-0.001161,0.0,0.0,0.0,-10.332175321836814
2023-09-08 15:13:43.945,-0.0090813332650666,-0.0081153881329777,-0.0074959167189333,0.0795390419285333,0.0795457363726222,0.0644614168277333,48.35925615277796,-4.557292,48.29153057101369,50.788002,0.5419244608682666,0.5411569886350223,0.5334828773760001,-0.0817957125010285,-0.0020819844041142,-9.807393482772111,0.0097432472704,-0.0018444640402285,0.0616545541540571,34.33116994713234,-0.0846171404470857,-0.0015099133165714,-9.807617607789714,0.0097443723136,-0.0017322854765714,0.0615803220571428,-0.292269,-0.368142,0.801186,-0.086768,-0.015394,-9.805376,19.3609297322144,359.47865240330344,129.76428846953095,0.0014026249984,0.0014016785700571,0.0123086785700571,-0.4244741982299428,-0.0043978391826285,0.0013372144658285,-0.9054261241472,0.0014026249984,0.0014016785700571,0.0123086785700571,12.900632,0.0,0.0,0.00553472507264,0.0,0.0,-0.00083770007808,0.0,0.0,0.0,-9.386847368261527
2023-09-08 15:13:43.960,-0.0090973333333333,-0.0082925555555555,-0.0074836666666666,0.0794776666666666,0.0794844444444444,0.0644236666666666,48.35925611111112,-4.557292,48.29116277777778,50.788002,0.5413303333333332,0.5405654444444444,0.532926,-0.082214,-0.001552,-9.807246,0.010383,-0.001902,0.061518,34.331005,-0.085182,-0.0009,-9.807466,0.010374,-0.001788,0.061433,-0.295786515008,-0.3679923743616,0.8030077577728,-0.0836333616256,-0.0045155785855999,-9.806171003392,0.0804432744363675,359.47820733597433,129.81779784020725,0.001403,0.001402,0.012309,-0.424052,-0.004422,0.001295,-0.905626,0.001403,0.001402,0.012309,12.900632,0.0,0.0,0.0055176999999999,0.0,0.0,-0.0008194,0.0,0.0,0.0,-9.333337997585232
2023-09-08 15:13:43.980,-0.0091186666666666,-0.0085287777777777,-0.0074673333333333,0.0793958333333333,0.0794027222222222,0.0643733333333333,48.35925605555556,-4.557292,48.29067238888889,50.788002,0.5405381666666667,0.5397767222222223,0.5321835,-0.08459,-0.0015545,-9.808463499999998,0.0098395,-0.001879,0.061383,34.331037499999994,-0.084789,-0.001094,-9.80814,0.0097655,-0.001878,0.061328,-0.300476515008,-0.3677928743615999,0.8054367577728,-0.0794538616256,0.0099889214144,-9.807231003392,0.0900403175048088,359.4770041246046,129.88646683195367,0.001395,0.0013945,0.0123085,-0.4235084999999999,-0.0044674999999999,0.0012209999999999,-0.90588,0.001395,0.0013945,0.0123085,12.900632,0.0,0.0,0.005495,0.0,0.0,-0.000795,0.0,0.0,0.0,-9.264669005838812
2023-09-08 15:13:43.985,-0.0091239999317333,-0.0085878325774222,-0.0074632500522666,0.0793753752618666,0.0793822919281777,0.0643607501610666,48.359256041666846,-4.557292,48.29054979323591,50.788002,0.5403401275349333,0.5395795441905779,0.531997877376,-0.0851839923968,-0.001555124992,-9.808767871104,0.0097036267392,-0.0018732500736,0.061349250432,34.331045624896,-0.0846907512575999,-0.0011424993792,-9.8083084978432,0.0096133769472,-0.001900499712,0.061301750336,-0.301649,-0.367743,0.806044,-0.078409,0.013615,-9.807496,0.0924395475613813,359.4767033256124,129.9036338601495,0.0013930000256,0.001392625024,0.0123083750016,-0.4233726267392,-0.0044788748543999,0.0012025002368,-0.9059434991872,0.0013930000256,0.001392625024,0.0123083750016,12.900632,0.0,0.0,0.00549105005056,0.0,0.0,-0.0007935000192,0.0,0.0,0.0,-9.247501977642967
2023-09-08 15:13:44.000,-0.00914,-0.008765,-0.007451,0.079314,0.079321,0.064323,48.359256,-4.557292,48.290182,50.788002,0.539746,0.538988,0.531441,-0.086966,-0.001557,-9.809681,0.009296,-0.001856,0.061248,34.33107,-0.084396,-0.001288,-9.808814,0.009157,-0.001968,0.061223,-0.306353395072,-0.3698801341184,0.8079587581696,-0.0783122495872,0.003013704768,-9.806335370048,0.0996373605732501,359.4758009132348,129.95513582370012,0.001387,0.001387,0.012308,-0.422965,-0.004513,0.001147,-0.906134,0.001387,0.001387,0.012308,12.900632,0.0,0.0,0.0054792,0.0,0.0,-0.000789,0.0,0.0,0.0,-9.196000014092364
2023-09-08 15:13:44.025,-0.0092874996224,-0.0088224998528,-0.0075241248128,0.0796433741567999,0.0796497491584,0.064501124544,48.359256,-4.557292,48.2904013744384,50.788002,0.540602247808,0.5398404978176,0.5321584981632,-0.0789547705088,-0.0044782425216,-9.8077328799872,0.008227252736,-0.0020191245824,0.0610392505344,34.3307362508544,-0.078886639104,-0.0050779902975999,-9.8076877528832,0.0080745027712,-0.0020598747648,0.0610467504512,-0.314194,-0.373442,0.81115,-0.078151,-0.014655,-9.804401,0.1080884664165434,359.473759756315,130.04147318042968,0.0013888749952,0.0013882499968,0.0123067500032,-0.4222818767488,-0.0045611248768,0.00108450016,-0.906452749184,0.0013888749952,0.0013882499968,0.0123067500032,12.900632,0.0,0.0,0.00545945005056,0.0,0.0,-0.0007815000192,0.0,0.0,0.0,-9.109662657362804
2023-09-08 15:13:44.040,-0.009376,-0.008857,-0.007568,0.079841,0.079847,0.064608,48.359256,-4.557292,48.290533,50.788002,0.541116,0.540352,0.532589,-0.074148,-0.006231,-9.806564,0.007586,-0.002117,0.060914,34.330536,-0.075581,-0.007352,-9.807012,0.007425,-0.002115,0.060941,-0.310494609216,-0.3712823657856,0.8138845116672,-0.0780782496896,-0.0104054818688,-9.8034057457536,0.1131591645383376,359.4725350538026,130.09327594810614,0.00139,0.001389,0.012306,-0.421872,-0.00459,0.001047,-0.906644,0.00139,0.001389,0.012306,12.900632,0.0,0.0,0.0054475999999999,0.0,0.0,-0.000777,0.0,0.0,0.0,-9.05785988968634
2023-09-08 15:13:44.065,-0.009257250304,-0.0090844994176,-0.007589874944,0.0801697491584,0.0801757491584,0.0647854995456,48.359256,-4.557292,48.290742374464,50.788002,0.5419828727808,0.5412157477888001,0.5333127481472,-0.0835236009984,-0.0084884942207999,-9.80504837888,0.0060003790592,-0.0022244997248,0.0606727506176,34.3299135015936,-0.0834597298304,-0.0095307444224,-9.8059695026688,0.0058712539776,-0.002149374912,0.0606778756736,-0.304329,-0.367683,0.818442,-0.077957,-0.003323,-9.801747,0.1180292933293879,359.47038646757125,130.17947006575363,0.0013918749951999,0.0013908749952,0.0123053750016,-0.4211895017472,-0.0046256249088,0.001012625088,-0.9069602491904,0.0013918749951999,0.0013908749952,0.0123053750016,12.900632,0.0,0.0,0.0054278500505599,0.0,0.0,-0.0007695000192,0.0,0.0,0.0,-8.971665772038847
2023-09-08 15:13:44.080,-0.009186,-0.009221,-0.007603,0.080367,0.080373,0.064892,48.359256,-4.557292,48.290868,50.788002,0.542503,0.541734,0.533747,-0.089149,-0.009843,-9.804139,0.005049,-0.002289,0.060528,34.32954,-0.088187,-0.010838,-9.805344,0.004939,-0.00217,0.06052,-0.3011418614016,-0.3642667354239999,0.8090527099392,-0.0729518536448,0.0008811429375999,-9.8072677735552,0.1209513905521167,359.4690973070318,130.23118688939414,0.001393,0.001392,0.012305,-0.42078,-0.004647,0.000992,-0.90715,0.001393,0.001392,0.012305,12.900632,0.0,0.0,0.005416,0.0,0.0,-0.000765,0.0,0.0,0.0,-8.919948948398343
2023-09-08 15:13:44.105,-0.009601623936,-0.0092766248576,-0.0075667500928,0.0806963741567999,0.0807023741568,0.0650688745472,48.359256,-4.557292,48.2910673744896,50.788002,0.5433811227519999,0.5426083727616,0.5344769981312,-0.0782290279552,-0.0048848876928,-9.8058239956864,0.0036058786944,-0.0022615000704,0.0604973750784,34.3299143740416,-0.076621404608,-0.004600515968,-9.8050233758208,0.0034208788864,-0.002301249664,0.0605006250496,-0.29583,-0.358573,0.793404,-0.06461,0.007888,-9.816469,0.1223837813730138,359.46666224263623,130.31770329497633,0.0013948749952,0.0013938749952,0.0123093749888,-0.4200943767552,-0.004671999936,0.0009863750144,-0.9074674991872,0.0013948749952,0.0013938749952,0.0123093749888,12.900632,0.0,0.0,0.00539625005056,0.0,0.0,-0.0007452500505599,0.0,0.0,0.0,-8.833432542816155
2023-09-08 15:13:44.120,-0.009851,-0.00931,-0.007545,0.080894,0.0809,0.065175,48.359256,-4.557292,48.291187,50.788002,0.543908,0.543133,0.534915,-0.071677,-0.00191,-9.806835,0.00274,-0.002245,0.060479,34.330139,-0.069682,-0.000858,-9.804831,0.00251,-0.00238,0.060489,-0.3014868991359999,-0.3560184891008,0.801502159552,-0.0701461486208,0.0006695942015999,-9.8105034745472,0.12324322173264,359.46520119402487,130.36961349269774,0.001396,0.001395,0.012312,-0.419683,-0.004687,0.000983,-0.907658,0.001396,0.001395,0.012312,12.900632,0.0,0.0,0.0053844,0.0,0.0,-0.0007333999999999,0.0,0.0,0.0,-8.781522345094743
2023-09-08 15:13:44.145,-0.010000999616,-0.0095806243072,-0.0074350002816,0.0812239991552,0.0812299991552,0.0653506245504,48.359256,-4.557292,48.2913863744896,50.788002,0.5447973727232,0.5440192477312,0.5356512481152,-0.0775963598464,-0.0046737429248,-9.8020800121728,0.0013443785728,-0.0022381250176,0.0601421258623999,34.3303058745728,-0.0784363525888,-0.00373299264,-9.8016703830912,0.0011962533632,-0.002283125248,0.0600690010752,-0.310915,-0.351761,0.814999,-0.079373,-0.011361,-9.800561,0.1216317820591307,359.4629809882525,130.4544826488359,0.0013972499968,0.0013968749951999,0.0123107500032,-0.4190111267199999,-0.004699499968,0.0010004999552,-0.9079679992064,0.0013972499968,0.0013968749951999,0.0123107500032,12.900632,0.0,0.0,0.00536465005056,0.0,0.0,-0.00071365005056,0.0,0.0,0.0,-8.696653188956589
2023-09-08 15:13:44.160,-0.010091,-0.009743,-0.007369,0.081422,0.081428,0.065456,48.359256,-4.557292,48.291506,50.788002,0.545331,0.544551,0.536093,-0.081148,-0.006332,-9.799227,0.000507,-0.002234,0.05994,34.330406,-0.083689,-0.005458,-9.799774,0.000408,-0.002225,0.059817,-0.3041372210816,-0.3520163760895999,0.8052909585792,-0.0733452242816,-0.0103687457664,-9.8017073798912,0.1206649116545513,359.4616488556951,130.50540449014375,0.001398,0.001398,0.01231,-0.418608,-0.004707,0.001011,-0.908154,0.001398,0.001398,0.01231,12.900632,0.0,0.0,0.0053528,0.0,0.0,-0.0007017999999999,0.0,0.0,0.0,-8.645731347648734
2023-09-08 15:13:44.180,-0.0109205,-0.01062,-0.006965,0.080321,0.0803265,0.0648785,48.359256,-4.557292,48.2903945,50.788002,0.5442750000000001,0.543498,0.5354785,-0.0770305,-0.004317,-9.8002865,-0.000885,-0.0021685,0.0597805,34.330070500000005,-0.077639,-0.00413,-9.8009665,-0.001086,-0.0020635,0.0596825,-0.2951002210816,-0.3523568760896,0.7923469585792,-0.0653082242815999,-0.0090457457664,-9.8032358798912,0.1164536718603397,359.4603883485458,130.5728702705204,0.001392,0.001392,0.0123095,-0.418073,-0.0047025,0.001046,-0.9084005,0.001392,0.001392,0.0123095,12.900632,0.0,0.0,0.005337,0.0,0.0,-0.000686,0.0,0.0,0.0,-8.57826556727207
2023-09-08 15:13:44.185,-0.0111278723456,-0.0108392471936,-0.0068640012928,0.0800457535232,0.0800511285248,0.0647341268479999,48.359256,-4.557292,48.2901166285568,50.788002,0.5440110033792,0.5432347533695999,0.5353248769664,-0.076001138176,-0.0038132564479999,-9.8005513716096,-0.0012329955455999,-0.0021521252096,0.0597406255104,34.3299866260736,-0.07612651936,-0.0037980042496,-9.801264621184,-0.0014594952192,-0.0020231255168,0.0596488754304,-0.292841,-0.352442,0.789111,-0.063299,-0.008715,-9.803618,0.1154008753877542,359.4600732257921,130.58973649972407,0.0013905000192,0.0013905000192,0.0123093750016,-0.417939251712,-0.0047013750144,0.001054749888,-0.9084621242112,0.0013905000192,0.0013905000192,0.0123093750016,12.900632,0.0,0.0,0.0053284001100799,0.0,0.0,-0.0007070663970133,0.0,0.0,0.0,-8.561399338068412
2023-09-08 15:13:44.200,-0.01175,-0.011497,-0.006561,0.07922,0.079225,0.064301,48.359256,-4.557292,48.289283,50.788002,0.543219,0.542445,0.534864,-0.072913,-0.002302,-9.801346,-0.002277,-0.002103,0.059621,34.329735,-0.071589,-0.002802,-9.802159,-0.00258,-0.001902,0.059548,-0.2948442585472,-0.352400749824,0.7984114146816,-0.072990916352,-0.0089478759936,-9.8013406152832,0.1122424320661282,359.4591278413965,130.64033605089708,0.001386,0.001386,0.012309,-0.417538,-0.004698,0.001081,-0.908647,0.001386,0.001386,0.012309,12.900632,0.0,0.0,0.0053025999999999,0.0,0.0,-0.0007702666666666,0.0,0.0,0.0,-8.510799786895404
2023-09-08 15:13:44.225,-0.012012499328,-0.0114663750784,-0.0064147503744,0.07954812416,0.0795537491584,0.064479124544,48.359256,-4.557292,48.289473624512,50.788002,0.5440764978048,0.5432993728127999,0.5355839981568,-0.0716842531456,-0.00403637056,-9.7998766287616,-0.003580121664,-0.0016742510976,0.0592560009344,34.330023124262404,-0.0722308733568,-0.0040494968064,-9.7994196320128,-0.0037449970176,-0.0016288756992,0.059201125888,-0.298183,-0.352332,0.813912,-0.089144,-0.009336,-9.797545,0.10371970668179,359.4580177385103,130.7235579575912,0.0013878749952,0.0013878749952,0.0123077500032,-0.416878626688,-0.0046761250559999,0.0011491248256,-0.9089494992256,0.0013878749952,0.0013878749952,0.0123077500032,12.900632,0.0,0.0,0.0052596001100799,0.0,0.0,-0.0008755997303466,0.0,0.0,0.0,-8.427577880201284
2023-09-08 15:13:44.240,-0.01217,-0.011448,-0.006327,0.079745,0.079751,0.064586,48.359256,-4.557292,48.289588,50.788002,0.544591,0.543812,0.536016,-0.070947,-0.005077,-9.798995,-0.004362,-0.001417,0.059037,34.330196,-0.072616,-0.004798,-9.797776,-0.004444,-0.001465,0.058993,-0.29962675616,-0.353406379584,0.8079457245439999,-0.077337074624,-0.0092422496,-9.7986696297984,0.0986060365420146,359.4573516722316,130.7734914424855,0.001389,0.001389,0.012307,-0.416483,-0.004663,0.00119,-0.909131,0.001389,0.001389,0.012307,12.900632,0.0,0.0,0.0052337999999999,0.0,0.0,-0.0009388,0.0,0.0,0.0,-8.377644395306987
2023-09-08 15:13:44.265,-0.0122722914048,-0.0114801874175999,-0.0063454374528,0.0798424997504,0.079848395584,0.0646409998592,48.359256,-4.5572921041664,48.2895877916672,50.788002,0.5451692276864001,0.5443877276928,0.5365440194816,-0.0770801092991999,-0.0061532472448,-9.8007687454592,-0.0051726229248,-0.0013688751232,0.0588845003903999,34.3309184981504,-0.0766741146112,-0.0061173716224,-9.8006997425152,-0.0052477479424,-0.0014118751359999,0.0590061249663999,-0.302033,-0.355197,0.798002,-0.057659,-0.009086,-9.800544,0.0881853933199877,359.4563848084275,130.85710725665535,0.0013908749952,0.0013902499968,0.0123063750016,-0.4158192516992,-0.0046342500736,0.0012724997888,-0.9094347492224,0.0013908749952,0.0013902499968,0.0123063750016,12.900632,0.0,0.0,0.0051908001100799,0.0,0.0,-0.00104413306368,0.0,0.0,0.0,-8.294028581137127
2023-09-08 15:13:44.280,-0.0123336666666666,-0.0114995,-0.0063565,0.079901,0.0799068333333333,0.064674,48.359256,-4.557292166666667,48.28958766666667,50.788002,0.5455161666666667,0.5447331666666666,0.5368608333333333,-0.08076,-0.006799,-9.801833,-0.005659,-0.00134,0.058793,34.331352,-0.079109,-0.006909,-9.802454,-0.00573,-0.00138,0.059014,-0.30179097396736,-0.3561442540416,0.7979783748992,-0.05854265377024,-0.0090739999488,-9.8009482517248,0.0819329647037077,359.4558046861848,130.9072770876485,0.001392,0.001391,0.012306,-0.415421,-0.004617,0.001322,-0.909617,0.001392,0.001391,0.012306,12.900632,0.0,0.0,0.0051649999999999,0.0,0.0,-0.0011073333333333,0.0,0.0,0.0,-8.243858750143971
2023-09-08 15:13:44.465,-0.0130906247381333,-0.0117376874176,-0.0064929374528,0.0806224997504,0.0806275622506666,0.0650809998592,48.359256,-4.557292937499733,48.28958612500053,50.788002,0.5497950610197333,0.5489935610261334,0.5407681861482667,-0.0761565849258666,-0.0096834573354666,-9.807460852219734,-0.0036748756864,0.0002933952682666,0.0572983546837333,34.330322937856,-0.0761752093482666,-0.0098682281429333,-9.805718478037331,-0.0036202298965333,0.0002834577578666,0.0572094797909333,-0.298806,-0.367827,0.797687,-0.069441,-0.008926,-9.805934,332.9995109735124,359.4691073291912,131.51501177830588,0.00139384999936,0.00139284999936,0.01230692499968,-0.41059435166976,-0.004223875136,0.00190567479808,-0.91180554924288,0.00139384999936,0.00139284999936,0.01230692499968,12.900632,0.0,0.0,0.00484680011008,0.0,0.0,-0.0018867997303466,0.0,0.0,0.0,-7.636124059486605
2023-09-08 15:13:44.480,-0.013152,-0.011757,-0.006504,0.080681,0.080686,0.065114,48.359256,-4.557293,48.289586,50.788002,0.550142,0.549339,0.541085,-0.0757833333333333,-0.0099173333333333,-9.807917166666666,-0.003514,0.0004258333333333,0.0571771666666666,34.3302395,-0.0759373333333333,-0.0101081666666666,-9.805983166666667,-0.0034491666666666,0.0004183333333333,0.0570631666666666,-0.3048037755904,-0.3605324688768,0.7982198772736,-0.0748245229696,-0.0121918889344,-9.8081570094848,359.9929526191199,359.47018592684253,131.56428779132503,0.001394,0.001393,0.012307,-0.410203,-0.004192,0.001953,-0.911983,0.001394,0.001393,0.012307,12.900632,0.0,0.0,0.004821,0.0,0.0,-0.00195,0.0,0.0,0.0,-7.586848046467452
2023-09-08 15:13:44.505,-0.0128601257472,-0.0114013759104,-0.0066439996416,0.0810097491584,0.0810147491584,0.0652902495488,48.359256,-4.557293,48.2897559995648,50.788002,0.5510332477184,0.550226497728,0.5418256231040001,-0.0751612515925333,-0.0103071240021333,-9.808677685553066,-0.0032458756864,0.0006465619349333,0.0569751880170666,34.330100437856,-0.0755408760149333,-0.0105080614762666,-9.806424311370668,-0.0031640632298666,0.0006431244245333,0.0568193131242666,-0.3148,-0.348375,0.799108,-0.083797,-0.017635,-9.811862,359.98654267019634,359.47244194238544,131.6453611117878,0.0013958749952,0.0013948749952,0.0123113749888,-0.4095580016512,-0.0041520001024,0.0019929998976,-0.9122723742592,0.0013958749952,0.0013948749952,0.0123113749888,12.900632,0.0,0.0,0.0047800834380799,0.0,0.0,-0.0019143334246399,0.0,0.0,0.0,-7.505774726004688
2023-09-08 15:13:44.520,-0.012685,-0.011188,-0.006728,0.081207,0.081212,0.065396,48.359256,-4.557293,48.289858,50.788002,0.551568,0.550759,0.54227,-0.074788,-0.010541,-9.809134,-0.003085,0.000779,0.056854,34.330017,-0.075303,-0.010748,-9.806689,-0.002993,0.000778,0.056673,-0.3124157398272,-0.3473118704639999,0.7989084991488,-0.085927009088,-0.00775370784,-9.8110066213504,359.98269667458703,359.4737955609518,131.69400543614262,0.001397,0.001396,0.012314,-0.409171,-0.004128,0.002017,-0.912446,0.001397,0.001396,0.012314,12.900632,0.0,0.0,0.0047555333333333,0.0,0.0,-0.0018929333333333,0.0,0.0,0.0,-7.457130401649863
2023-09-08 15:13:44.545,-0.01253175039232,-0.01118974999552,-0.0067076250521599,0.08127237483264,0.08127724983296,0.06543362490368,48.359256,-4.557293,48.28990487488,50.788002,0.5521148736,0.55130349860608,0.54277774870016,-0.0794061131775999,-0.00472851488,-9.8042765124352,-0.001735003456,0.0008714997632,0.0565840006912,34.3299001252992,-0.0803698620287999,-0.0046017657344,-9.8045977553536,-0.0015605036672,0.0008511248128,0.0565430003328,-0.308442,-0.34554,0.798576,-0.089477,0.008715,-9.809581,359.9795812245516,359.47626643511785,131.77432675142444,0.0013982499968,0.0013978749952,0.0123127500032,-0.4085316266368,-0.0040986250752,0.0020301249664,-0.9127328742656,0.0013982499968,0.0013978749952,0.0123127500032,12.900632,0.0,0.0,0.0047146167714133,0.0,0.0,-0.0018572667579733,0.0,0.0,0.0,-7.376809086368041
2023-09-08 15:13:44.560,-0.0124398,-0.0111908,-0.0066954,0.0813116,0.0813164,0.0654561999999999,48.359256,-4.557293,48.289933000000005,50.788002,0.5524429999999999,0.5516302,0.5430824000000001,-0.082177,-0.001241,-9.801362,-0.000925,0.000927,0.056422,34.32983,-0.08341,-0.000914,-9.803343,-0.000701,0.000895,0.056465,-0.3091475030101333,-0.3470796315690667,0.8006597588906667,-0.0867509883690666,0.0080686222421333,-9.8083288696576,359.9777119417694,359.47774896973823,131.82251986959048,0.001399,0.001399,0.012312,-0.408148,-0.004081,0.002038,-0.912905,0.001399,0.001399,0.012312,12.900632,0.0,0.0,0.0046900666666666,0.0,0.0,-0.0018358666666666,0.0,0.0,0.0,-7.328615968202001
2023-09-08 15:13:44.665,-0.01179615039232,-0.01119814999552,-0.00660982505216,0.08158617483264,0.08159044983296,0.06561422490368,48.359256,-4.557293,48.29012987488,50.788002,0.5547398736,0.5539170986060801,0.5452149487001601,-0.0762427536170666,0.0035452470826666,-9.803445373730131,0.0031183725354666,-0.0003329992319999,0.0551812507562666,34.32920612538027,-0.075390629888,0.0036736222037333,-9.804399124356268,0.0031244976682666,-0.0004148742016,0.0552697507285333,-0.314086,-0.357857,0.815246,-0.067669,0.003544,-9.799564,359.98282558697406,359.4831132838255,132.15074570444204,0.0013963750016,0.0013963750016,0.0123085000021333,-0.4055308765952,-0.0040626250112,0.0019662500437333,-0.9140696242901334,0.0013963750016,0.0013963750016,0.0123085000021333,12.900632,0.0,0.0,0.0045182167714133,0.0,0.0,-0.0016860667579733,0.0,0.0,0.0,-7.000390133350436
2023-09-08 15:13:44.680,-0.0117042,-0.0111992,-0.0065975999999999,0.0816254,0.0816296,0.0656368,48.359256,-4.557293,48.290158,50.788002,0.555068,0.5542438000000001,0.5455196,-0.075395,0.004229,-9.803743,0.003696,-0.000513,0.055004,34.329117,-0.074245,0.004329,-9.80455,0.003671,-0.000602,0.055099,-0.3118378654079999,-0.3550148628735999,0.8120202362368,-0.0683631279616,0.0015306164096,-9.8024967000128,359.98355611127977,359.48387961814615,132.19763533806264,0.001396,0.001396,0.012308,-0.405157,-0.00406,0.001956,-0.914236,0.001396,0.001396,0.012308,12.900632,0.0,0.0,0.0044936666666666,0.0,0.0,-0.0016646666666666,0.0,0.0,0.0,-6.9535004997298415
2023-09-08 15:13:44.720,-0.011459,-0.011202,-0.006565,0.08173,0.081734,0.065697,48.359256,-4.557293,48.290233,50.788002,0.555943,0.555115,0.546332,-0.07721,0.0003949999999999,-9.804905000000002,0.0044255,-0.0012365,0.0549855,34.3282585,-0.0760685,0.0002935,-9.805988,0.0045245,-0.0012694999999999,0.055074,-0.305842865408,-0.3474358628735999,0.8034182362368,-0.0702141279616,-0.0038383835904,-9.8103172000128,359.9908899710574,359.483192068792,132.32254013740118,0.001399,0.001399,0.012315,-0.40416,-0.004093,0.001896,-0.914677,0.001399,0.001399,0.012315,12.900632,0.0,0.0,0.0044281999999999,0.0,0.0,-0.0016075999999999,0.0,0.0,0.0,-6.828595700391304
2023-09-08 15:13:44.745,-0.0112396255616,-0.0110507503872,-0.0065250001023999,0.0820593741568,0.0820633741568,0.0658713745536,48.359256,-4.557293,48.2903792496256,50.788002,0.5568592476544,0.5560281226624,0.5470869980672001,-0.078344372096,-0.0020012438656,-9.8056312481408,0.0048814363328,-0.0016886863424,0.0549739375296,34.327721938873594,-0.0772081845824,-0.0022286810431999,-9.8068867476992,0.0050579361344,-0.0016866864319999,0.05505837504,-0.302096,-0.342699,0.798042,-0.071371,-0.007194,-9.815205,359.9964762952589,359.48158062911847,132.40103515438634,0.0014008749952,0.0014002499967999,0.0123137500032,-0.4035331266048,-0.0041267499136,0.0018541251071999,-0.9149538742912,0.0014008749952,0.0014002499967999,0.0123137500032,12.900632,0.0,0.0,0.00438728343808,0.0,0.0,-0.00157193342464,0.0,0.0,0.0,-6.750100683406146
2023-09-08 15:13:44.760,-0.011108,-0.01096,-0.006501,0.082257,0.082261,0.065976,48.359256,-4.557293,48.290467,50.788002,0.557409,0.556576,0.54754,-0.079025,-0.003439,-9.806067,0.005155,-0.00196,0.054967,34.3274,-0.077892,-0.003742,-9.807426,0.005378,-0.001937,0.055049,-0.3054117641472,-0.3449242594944,0.804403902144,-0.0708804979072,-0.004000861376,-9.8125552386944,359.9998281126615,359.4806137587139,132.44813248609384,0.001402,0.001401,0.012313,-0.403157,-0.004147,0.001829,-0.91512,0.001402,0.001401,0.012313,12.900632,0.0,0.0,0.0043627333333333,0.0,0.0,-0.0015505333333333,0.0,0.0,0.0,-6.703003351698641
2023-09-08 15:13:44.780,-0.011328,-0.011266,-0.006399,0.081457,0.081461,0.065562,48.359256,-4.557293,48.290979,50.7875025,0.556701,0.55587,0.5471785,-0.0745455,-0.0042595,-9.8069575,0.0053635,-0.002328,0.0546205,34.327871,-0.0742845,-0.0042115,-9.807311,0.0054515,-0.002297,0.05468,-0.3098327641472,-0.3478912594944,0.812886402144,-0.0702264979072,0.000256638624,-9.8090222386944,180.00481284547908,359.4785797585412,132.51004057585772,0.0013974999999999,0.0013969999999999,0.0123125,-0.4026619999999999,-0.0041814999999999,0.001794,-0.9153375,0.0013974999999999,0.0013969999999999,0.0123125,12.900632,0.0,0.0,0.00433,0.0,0.0,-0.001522,0.0,0.0,0.0,-6.641095261934765
2023-09-08 15:13:44.785,-0.011382999296,-0.0113424990208,-0.0063735003264,0.08125700256,0.08126100256,0.0654585013248,48.359256,-4.557293,48.2911069983616,50.7873776265984,0.5565240022656,0.5556935022592,0.5470881261568,-0.0734256393344,-0.0044646223744,-9.8071801221504,0.0054156243328,-0.0024199988224,0.0545338761088,34.3279887484928,-0.073382636544,-0.0043288734976,-9.807282250368,0.0054698747648,-0.002386998848,0.0545877511808,-0.310938,-0.348633,0.815007,-0.070063,0.001321,-9.808139,135.00663501273235,359.4780712650068,132.5255174001928,0.0013963750144,0.0013960000127999,0.0123123750016,-0.402538251584,-0.0041901248896,0.001785250112,-0.915391874304,0.0013963750144,0.0013960000127999,0.0123123750016,12.900632,0.0,0.0,0.00432677504128,0.0,0.0,-0.0014996252864,0.0,0.0,0.0,-6.625618437599684
2023-09-08 15:13:44.800,-0.011548,-0.011572,-0.006297,0.080657,0.080661,0.065148,48.359256,-4.557293,48.291491,50.787003,0.555993,0.555164,0.546817,-0.070066,-0.00508,-9.807848,0.005572,-0.002696,0.054274,34.328342,-0.070677,-0.004681,-9.807196,0.005525,-0.002657,0.054311,-0.3145162652672,-0.3496425043072,0.8153077512832,-0.0749912710272,-0.0036770213248,-9.807452747072,0.009797578296737,359.4765457583685,132.5719486656216,0.001393,0.001393,0.012312,-0.402167,-0.004216,0.001759,-0.915555,0.001393,0.001393,0.012312,12.900632,0.0,0.0,0.0043171,0.0,0.0,-0.0014325,0.0,0.0,0.0,-6.57918717217089
2023-09-08 15:13:44.825,-0.0113555004928,-0.0114238753792,-0.0061738753152,0.0809857491584,0.0809897491584,0.0653242495488,48.359256,-4.557293,48.2916353746304,50.787003,0.5568892477056,0.5560571227136,0.5475626230912,-0.0753978613504,-0.00884561536,-9.806916752384,0.0057651245056,-0.0027441248768,0.0541446253312,34.3284401247488,-0.0756194873472,-0.0091472385664,-9.806971000576,0.0057918743168,-0.0028344995456,0.054101625536,-0.32048,-0.351325,0.815809,-0.083205,-0.012007,-9.806309,0.0162075272202518,359.4734661181036,132.64811604752282,0.0013948749952,0.0013942499968,0.0123113750016,-0.4015582515584,-0.0042647498752,0.0017158751104,-0.9158218743168,0.0013948749952,0.0013942499968,0.0123113750016,12.900632,0.0,0.0,0.00430097504128,0.0,0.0,-0.0013206252863999,0.0,0.0,0.0,-6.503019790269661
2023-09-08 15:13:44.840,-0.01124,-0.011335,-0.0061,0.081183,0.081187,0.06543,48.359256,-4.557293,48.291722,50.787003,0.557427,0.556593,0.54801,-0.078597,-0.011105,-9.806358,0.005881,-0.002773,0.054067,34.328499,-0.078585,-0.011827,-9.806836,0.005952,-0.002941,0.053976,-0.3172088610432,-0.3537733854464,0.8079155913216001,-0.075491217088,-0.0107923698176,-9.806076499008,0.0200535228295788,359.4716183213304,132.69381678864593,0.001396,0.001395,0.012311,-0.401193,-0.004294,0.00169,-0.915982,0.001396,0.001395,0.012311,12.900632,0.0,0.0,0.0042913,0.0,0.0,-0.0012534999999999,0.0,0.0,0.0,-6.457319049146548
2023-09-08 15:13:44.865,-0.011232708352,-0.0111050005888,-0.0060410418176,0.0815123741568,0.0815163741567999,0.0656043745536,48.359256,-4.557293,48.2918703329536,50.787003,0.558345747648,0.5575077893248,0.5487679147264,-0.0732276387456,-0.0060187630208,-9.8075786218752,0.0058859999872,-0.0026967501952,0.0538207506304,34.3286921245056,-0.0718150173311999,-0.0061376395648,-9.8075853730816,0.0058101253632,-0.002656625728,0.0537272506368,-0.311757,-0.357854,0.79476,-0.062635,-0.008768,-9.805689,0.0261769935889141,359.4691474471644,132.76980512169453,0.0013978749952,0.0013968749951999,0.0123097500032,-0.4005848765568,-0.0043358748928,0.0016468751104,-0.91624762432,0.0013978749952,0.0013968749951999,0.0123097500032,12.900632,0.0,0.0,0.0042751750412799,0.0,0.0,-0.0011416252864,0.0,0.0,0.0,-6.381330716097949
2023-09-08 15:13:44.880,-0.0112283333333333,-0.010967,-0.0060056666666666,0.08171,0.081714,0.065709,48.359256,-4.557293,48.29195933333333,50.787003,0.558897,0.5580566666666666,0.5492226666666666,-0.070006,-0.002967,-9.808311,0.005889,-0.002651,0.053673,34.328808,-0.067753,-0.002724,-9.808035,0.005725,-0.002486,0.053578,-0.3132440063445333,-0.3574102481066666,0.7974237613653333,-0.0639320055338666,-0.0090302511189333,-9.8053031233536,0.0298511011263158,359.467664912544,132.8153984327727,0.001399,0.001398,0.012309,-0.40022,-0.004361,0.001621,-0.916407,0.001399,0.001398,0.012309,12.900632,0.0,0.0,0.0042655,0.0,0.0,-0.0010745,0.0,0.0,0.0,-6.335737405019785
2023-09-08 15:13:44.960,-0.011205,-0.010231,-0.005817,0.082764,0.082768,0.066267,48.359256,-4.557293,48.292434,50.787003,0.561837,0.560984,0.551648,-0.0720753333333333,-0.006775,-9.808773666666667,0.0055116666666666,-0.002457,0.0532783333333333,34.32831733333333,-0.0716283333333333,-0.0066686666666666,-9.808409,0.0054009999999999,-0.0022253333333333,0.0532986666666666,-0.3211746730112,-0.35504358144,0.8116304280319999,-0.0708493388672,-0.0104289177856,-9.8032451233536,0.0483003421295284,359.457065193334,133.05793146745157,0.001404,0.001404,0.012314,-0.398279,-0.004514,0.0015,-0.917252,0.001404,0.001404,0.012314,12.900632,0.0,0.0,0.0042139,0.0,0.0,-0.0007165,0.0,0.0,0.0,-6.093204370340914
2023-09-08 15:13:44.980,-0.0112255,-0.0100425,-0.005834,0.083028,0.083032,0.0664055,48.359256,-4.557293,48.2925605,50.787003,0.56259,0.561734,0.5522644999999999,-0.0725926666666666,-0.0077269999999999,-9.808889333333331,0.0054173333333333,-0.0024085,0.0531796666666666,34.32819466666667,-0.0725971666666666,-0.0076548333333333,-9.8085025,0.00532,-0.0021601666666666,0.0532288333333333,-0.3231573396778667,-0.3544519147733333,0.8151820946986666,-0.0725786722005333,-0.0107785844522666,-9.8027306233536,0.0526261734827661,359.4555468551769,133.1180347401608,0.0014055,0.0014055,0.0123135,-0.3977975,-0.004542,0.0014685,-0.9174605,0.0014055,0.0014055,0.0123135,12.900632,0.0,0.0,0.004201,0.0,0.0,-0.000627,0.0,0.0,0.0,-6.033101097631686
2023-09-08 15:13:44.985,-0.0112306249344,-0.0099953756032,-0.0058382499456,0.0830939991552,0.0830979991552,0.0664401245568,48.359256,-4.557293,48.2925921245952,50.787003,0.5627782475904001,0.5619214976,0.5524186230272,-0.0727219983445333,-0.0079649969536,-9.808918249629867,0.0053937503018666,-0.0023963751552,0.0531550003157333,34.32816400039253,-0.0728393718997333,-0.0079013718442666,-9.8085258747008,0.0052997502592,-0.0021438752085333,0.0532113752234666,-0.323653,-0.354304,0.81607,-0.073011,-0.010866,-9.802602,0.0537076174784151,359.4551672754963,133.1330603660076,0.0014058749952,0.0014058749952,0.0123133750016,-0.3976771265408,-0.0045489999104,0.0014606251008,-0.9175126243328,0.0014058749952,0.0014058749952,0.0123133750016,12.900632,0.0,0.0,0.00419202511488,0.0,0.0,-0.0006449372704,0.0,0.0,0.0,-6.018075471784869
2023-09-08 15:13:45.000,-0.011246,-0.009854,-0.005851,0.083292,0.083296,0.066544,48.359256,-4.557293,48.292687,50.787003,0.563343,0.562484,0.552881,-0.07311,-0.008679,-9.809005,0.005323,-0.00236,0.053081,34.328072,-0.073566,-0.008641,-9.808596,0.005239,-0.002095,0.053159,-0.322400494656,-0.3531969952768,0.8174878810496,-0.0757158865408,-0.0096352447488,-9.802406999168,0.0569520048360038,359.4540285170198,133.17813801287,0.001407,0.001407,0.012313,-0.397316,-0.00457,0.001437,-0.917669,0.001407,0.001407,0.012313,12.900632,0.0,0.0,0.0041651,0.0,0.0,-0.0006987499999999,0.0,0.0,0.0,-5.972997824922487
2023-09-08 15:13:45.025,-0.0115016243456,-0.010513373312,-0.0052097516416,0.0817945038336,0.0817997538304,0.0656621272576,48.359256,-4.557293,48.2882770112896,50.787003,0.54984303456,0.5490427844096,0.5403354071168,-0.0757812431616,-0.0087846247296,-9.8027037661312,0.0049355009919999,-0.0018962511872,0.053224749632,34.3277620007936,-0.0762928680192,-0.0086628749439999,-9.8031653889024,0.0050615004544,-0.0018331256704,0.0531152501119999,-0.320313,-0.351352,0.819851,-0.080224,-0.007584,-9.802082,0.0622518508733233,359.4528826043631,133.25323110165553,0.0014001250176,0.0014001250176,0.0123117500032,-0.3967141265408,-0.004598124928,0.0013957501056,-0.9179289993344,0.0014001250176,0.0014001250176,0.0123117500032,12.900632,0.0,0.0,0.0041202251148799,0.0,0.0,-0.0007884372703999,0.0,0.0,0.0,-5.897904736136951
2023-09-08 15:13:45.040,-0.011655,-0.010909,-0.004825,0.080896,0.080902,0.065133,48.359256,-4.557293,48.285631,50.787003,0.541743,0.540978,0.532808,-0.077384,-0.008848,-9.798923,0.004703,-0.001618,0.053311,34.327576,-0.077929,-0.008676,-9.799907,0.004955,-0.001676,0.053089,-0.3216390056576,-0.3501054946816,0.8169248625152,-0.0784948676224,-0.0077692507904,-9.7994408637312,0.06543178020394,359.4521950520754,133.29828726250895,0.001396,0.001396,0.012311,-0.396353,-0.004615,0.001371,-0.918085,0.001396,0.001396,0.012311,12.900632,0.0,0.0,0.0040933,0.0,0.0,-0.0008422499999999,0.0,0.0,0.0,-5.852848575283531
2023-09-08 15:13:45.065,-0.011854999488,-0.01107699956992,-0.00506599938304,0.08081500020736,0.08082087520768,0.0650948750976,48.359256,-4.557293,48.28603899895552,50.78712787468032,0.54210599907072,0.54133912407552,0.5331898740223999,-0.0744077576192,-0.0094517484544,-9.799007374784,0.0048448746368,-0.0010417514752,0.0528528761728,34.3275922499584,-0.0740427599488,-0.0095303728128,-9.7985457534848,0.004836250304,-0.0010516265984,0.0528946254976,-0.323849,-0.348028,0.812048,-0.075613,-0.008078,-9.795039,0.0701586699129006,359.452302481387,133.37259253634298,0.0013978749952,0.0013972499968,0.0123103750016,-0.3957573765248,-0.0046318749568,0.0013297501056,-0.9183418743424,0.0013978749952,0.0013972499968,0.0123103750016,12.900632,0.0,0.0,0.00404842511488,0.0,0.0,-0.0009319372704,0.0,0.0,0.0,-5.778543301449503
2023-09-08 15:13:45.080,-0.011975,-0.0111778,-0.0052106,0.0807664,0.0807722,0.0650719999999999,48.359256,-4.557293,48.2862838,50.7872028,0.5423238,0.5415557999999999,0.533419,-0.072622,-0.009814,-9.799058,0.00493,-0.000696,0.052578,34.327602,-0.071711,-0.010043,-9.797729,0.004765,-0.000677,0.052778,-0.3235858426271999,-0.3474499350336,0.8112663091648,-0.0753516238848,-0.0091691609056,-9.7965481001888,0.0729948230996668,359.45236693941393,133.4171760049986,0.001399,0.001398,0.01231,-0.3954,-0.004642,0.001305,-0.918496,0.001399,0.001398,0.01231,12.900632,0.0,0.0,0.0040215,0.0,0.0,-0.00098575,0.0,0.0,0.0,-5.733959832793886
2023-09-08 15:13:45.225,-0.013134999488,-0.01215219956992,-0.00660839938304,0.08029660020736,0.08030167520768,0.0648508750976,48.359256,-4.557293,48.28865019895552,50.78792707468032,0.54442919907072,0.5436503240755199,0.5356338740223999,-0.0821385270496,-0.0089793441184,-9.8062608718208,0.0034718443936,0.00109384296,0.052197375168,34.325372625984,-0.0817187143328,-0.0086709381056,-9.8064416836544,0.0036294692512,0.00095424928,0.0522260939936,-0.321042,-0.341862,0.80371,-0.072825,-0.019717,-9.811136,0.093349139787711,359.4628556434216,133.8464859294291,0.0013926562528,0.0013925625024,0.0123118124992,-0.3919553452704,-0.0046320312543999,0.001087500096,-0.9199713743488,0.0013926562528,0.0013925625024,0.0123118124992,12.900632,0.0,0.0,0.00376122511488,0.0,0.0,-0.0015059372703999,0.0,0.0,0.0,-5.304649908363388
2023-09-08 15:13:45.240,-0.013255,-0.012253,-0.006753,0.080248,0.080253,0.064828,48.359256,-4.557293,48.288895,50.788002,0.544647,0.543867,0.535863,-0.083123,-0.008893,-9.807006,0.003321,0.001279,0.052158,34.325142,-0.082754,-0.008529,-9.807343,0.003512,0.001123,0.052169,-0.316264479616,-0.34207762592,0.803303123264,-0.0724004981888,-0.0142596017152,-9.8120558789248,0.0954547686687951,359.4639406868756,133.89089751001276,0.001392,0.001392,0.012312,-0.391599,-0.004631,0.001065,-0.920124,0.001392,0.001392,0.012312,12.900632,0.0,0.0,0.0037343,0.0,0.0,-0.00155975,0.0,0.0,0.0,-5.260238327779717
2023-09-08 15:13:45.265,-0.0134826556672,-0.012566280448,-0.006998311872,0.0800687817088,0.0800737817088,0.064736593984,48.359256,-4.557293,48.289468436032,50.7878459066496,0.544875905664,0.5440948119168,0.5361514367615999,-0.0772198901119999,-0.0098411225728,-9.8100491172096,0.0026297517696,0.0010671255424,0.052139250048,34.3253851243776,-0.0777002629375999,-0.0104877449856,-9.8108061161344,0.0026876271104,0.0010411252096,0.0522027499136,-0.308302,-0.342437,0.802625,-0.071693,-0.005164,-9.813589,0.096529061784468,359.4663757512712,133.96466563728896,0.0013938749952,0.0013932499968,0.0123113750016,-0.3910071265152,-0.0046153750399999,0.0010456250496,-0.9203758743552,0.0013938749952,0.0013932499968,0.0123113750016,12.900632,0.0,0.0,0.00368942511488,0.0,0.0,-0.0016494372704,0.0,0.0,0.0,-5.186470200503521
2023-09-08 15:13:45.280,-0.01361925,-0.01275425,-0.0071455,0.07996125,0.07996625,0.06468175,48.359256,-4.557293,48.2898125,50.78775225,0.54501325,0.5442315,0.5363245,-0.073678,-0.01041,-9.811875,0.002215,0.00094,0.052128,34.325531,-0.074668,-0.011663,-9.812884,0.002193,0.000992,0.052223,-0.3107341353770667,-0.3419319978453333,0.8018192465621333,-0.0734170073557333,-0.0042692461824,-9.8127463714048,0.0971736420541876,359.4678367998825,134.0089268158097,0.001395,0.001394,0.012311,-0.390652,-0.004606,0.001034,-0.920527,0.001395,0.001394,0.012311,12.900632,0.0,0.0,0.0036625,0.0,0.0,-0.00170325,0.0,0.0,0.0,-5.142209021982779
2023-09-08 15:13:45.380,-0.014529875,-0.0140073749999999,-0.00812675,0.079244375,0.079249375,0.064316125,48.359256,-4.557293,48.29210625,50.787127875,0.545928875,0.5451427499999999,0.5374782499999999,-0.0778971666666666,-0.0066308333333333,-9.8077625,0.0002233333333333,5.8333333333333306e-05,0.0517071666666666,34.32593183333333,-0.0780005,-0.0070888333333333,-9.808614833333332,0.0002079999999999,3.366666666666676e-05,0.0517713333333333,-0.3269483020437334,-0.3385653311786666,0.7964475798954667,-0.0849103406890666,0.0016957538176,-9.8071288714048,0.0927332191419236,359.47495102583866,134.30562346072162,0.0013866666666666,0.0013865,0.0123135,-0.388267,-0.0045368333333333,0.0010331666666666,-0.9215345,0.0013866666666666,0.0013865,0.0123135,12.900632,0.0,0.0,0.003483,0.0,0.0,-0.002062,0.0,0.0,0.0,-4.845512377070861
2023-09-08 15:13:45.385,-0.0145754056672,-0.0140700304479999,-0.008175811872,0.0792085317088,0.0792135317088,0.064297843984,48.359256,-4.557293,48.292220936032,50.7870966566496,0.545974655664,0.5451883119168,0.5375359367615999,-0.0781081222997333,-0.0064418774186666,-9.807556877632,0.0001237512746666,1.4250564266666645e-05,0.0516861252693333,34.32595187474347,-0.0781671228672,-0.0068601279274666,-9.808401377732269,0.0001087512703999,-1.42493866666666e-05,0.0517487502890666,-0.327759,-0.338397,0.796179,-0.085485,0.001994,-9.806848,0.0925112008381811,359.47530673258336,134.32045810308136,0.0013862500053333,0.0013861250048,0.0123136249984,-0.3881477515264,-0.0045333750442666,0.0010331250005333,-0.9215848743552,0.0013862500053333,0.0013861250048,0.0123136249984,12.900632,0.0,0.0,0.00347632508544,0.0,0.0,-0.00204497521792,0.0,0.0,0.0,-4.8306777347111165
2023-09-08 15:13:45.400,-0.014712,-0.014258,-0.008323,0.079101,0.079106,0.064243,48.359256,-4.557293,48.292565,50.787003,0.546112,0.545325,0.537709,-0.078741,-0.005875,-9.80694,-0.000175,-0.000118,0.051623,34.326012,-0.078667,-0.006174,-9.807761,-0.000189,-0.000158,0.051681,-0.3263126188288,-0.3373241204224,0.8021456504576,-0.0784807201152,-0.003811024768,-9.808261756032,0.0918451345594709,359.4763738710299,134.364962789704,0.001385,0.001385,0.012314,-0.38779,-0.004523,0.001033,-0.921736,0.001385,0.001385,0.012314,12.900632,0.0,0.0,0.0034563,0.0,0.0,-0.0019939,0.0,0.0,0.0,-4.786173048088472
2023-09-08 15:13:45.425,-0.0147269999616,-0.014073625472,-0.0084204997504,0.07942912416,0.07943412416,0.064421124544,48.359256,-4.557293,48.2927562495104,50.787003,0.5469688728064,0.5461787478144,0.5384296231551999,-0.0753028838016,-0.0128924820352,-9.8086762455552,-0.0009837479296,-0.0002779995903999,0.0516954998144,34.3257951255552,-0.07440138592,-0.0130471074048,-9.8091303714944,-0.0011721224831999,-0.0003711244543999,0.0517172499072,-0.323902,-0.335536,0.81209,-0.066807,-0.013486,-9.810618,0.0872614839325999,359.4766961589646,134.43826538996342,0.0013868749951999,0.0013868749951999,0.0123133750016,-0.3872000015104,-0.0045055000448,0.0010661249151999,-0.9219841243648,0.0013868749951999,0.0013868749951999,0.0123133750016,12.900632,0.0,0.0,0.00342292508544,0.0,0.0,-0.00190877521792,0.0,0.0,0.0,-4.7128704478290615
2023-09-08 15:13:45.440,-0.014736,-0.013963,-0.008479,0.079626,0.079631,0.064528,48.359256,-4.557293,48.292871,50.787003,0.547483,0.546691,0.538862,-0.07324,-0.017103,-9.809718,-0.001469,-0.000374,0.051739,34.325665,-0.071842,-0.017171,-9.809952,-0.001762,-0.000499,0.051739,-0.3203211097216,-0.3356965006848,0.811784373696,-0.0749565347712,-0.0091239813887999,-9.8089274927872,0.0845112747817964,359.47688953304555,134.4822472503673,0.001388,0.001388,0.012313,-0.386846,-0.004495,0.001086,-0.922133,0.001388,0.001388,0.012313,12.900632,0.0,0.0,0.0034029,0.0,0.0,-0.0018577,0.0,0.0,0.0,-4.668888587425187
2023-09-08 15:13:45.465,-0.0148397497344,-0.013860916928,-0.0085108749184,0.079955165824,0.0799599574912,0.0647048745472,48.359256,-4.557293,48.2930703744896,50.787003,0.5483617477504,0.5475662060928,0.5395949147904,-0.0723075023872,-0.01368113376,-9.8102754985728,-0.0024633724544,-0.0005796244736,0.0518646246784,34.3253168758912,-0.07279512256,-0.0128016361855999,-9.8100463747584,-0.0025919978751999,-0.0005658748287999,0.0518302497664,-0.314353,-0.335964,0.811275,-0.088539,-0.001854,-9.80611,0.0780297063172367,359.4770685818982,134.55565727993826,0.0013898749952,0.0013898749952,0.0123117500032,-0.3862560015104,-0.0044725000576,0.0011347498752,-0.922379874368,0.0013898749952,0.0013898749952,0.0123117500032,12.900632,0.0,0.0,0.00336952508544,0.0,0.0,-0.00177257521792,0.0,0.0,0.0,-4.595478557854221
2023-09-08 15:13:45.480,-0.014902,-0.0137996666666666,-0.00853,0.0801526666666666,0.0801573333333333,0.064811,48.359256,-4.557293,48.29319,50.787003,0.5488890000000001,0.5480913333333334,0.5400346666666667,-0.071748,-0.011628,-9.81061,-0.00306,-0.000703,0.05194,34.325108,-0.073367,-0.01018,-9.810103,-0.00309,-0.000606,0.051885,-0.3163857586730667,-0.3358671245866667,0.8104338714111999,-0.0867659924352,-0.0025760030805333,-9.805799623675734,0.0741407386899285,359.4771760119432,134.5997035983691,0.001391,0.001391,0.012311,-0.385902,-0.004459,0.001164,-0.922528,0.001391,0.001391,0.012311,12.900632,0.0,0.0,0.0033495,0.0,0.0,-0.0017215,0.0,0.0,0.0,-4.551432239423377
2023-09-08 15:13:45.560,-0.015234,-0.013473,-0.008632,0.081206,0.08121,0.065377,48.359256,-4.557293,48.293828,50.787003,0.551701,0.550892,0.54238,-0.0752953333333333,-0.0090593333333333,-9.808036,-0.0039073333333333,-0.001575,0.0516086666666666,34.325512,-0.0764036666666666,-0.0093266666666666,-9.807927,-0.0039053333333333,-0.0014793333333333,0.0515356666666666,-0.3272270920064,-0.33535045792,0.8059478714112,-0.0773099924352,-0.0064266697471999,-9.8041442903424,0.0497327366173554,359.47327989893625,134.83570491418348,0.001397,0.001396,0.012316,-0.384002,-0.004411,0.001364,-0.923321,0.001397,0.001396,0.012316,12.900632,0.0,0.0,0.0032427,0.0,0.0,-0.0014491,0.0,0.0,0.0,-4.315430923609
2023-09-08 15:13:45.580,-0.0152939999999999,-0.013939,-0.008663,0.0802715,0.0802755,0.064886,48.359256,-4.557293,48.294148,50.787003,0.55084,0.550034,0.541898,-0.0761821666666666,-0.0084171666666666,-9.8073925,-0.0041191666666666,-0.0017929999999999,0.0515258333333333,34.325613,-0.0771628333333333,-0.0091133333333333,-9.807383,-0.0041091666666666,-0.0016976666666666,0.0514483333333333,-0.3299374253397333,-0.3352212912533333,0.8048263714112,-0.0749459924352,-0.0073893364138666,-9.803730457009069,0.0434015529811598,359.472133983346,134.89443308818437,0.0013915,0.001391,0.0123155,-0.383529,-0.0043995,0.0014169999999999,-0.9235175,0.0013915,0.001391,0.0123155,12.900632,0.0,0.0,0.003216,0.0,0.0,-0.001381,0.0,0.0,0.0,-4.25670274960811
2023-09-08 15:13:45.585,-0.0153089998079999,-0.0140554985088,-0.0086707499008,0.0800378779904,0.0800418779904,0.0647632515712,48.359256,-4.557293,48.294227998976,50.787003,0.5506247527552,0.5498195027456,0.5417775015424,-0.0764038721621333,-0.0082566270549333,-9.8072316270592,-0.0041721243221333,-0.0018474993023999,0.0515051252650666,34.3256382496768,-0.0773526225706666,-0.0090600006826666,-9.8072470017408,-0.0041601243477333,-0.0017522493013333,0.0514265002794666,-0.330615,-0.335189,0.804546,-0.074355,-0.00763,-9.803627,0.0418187773318985,359.47184750811533,134.90911494375445,0.0013901250176,0.001389750016,0.0123153750016,-0.3834107515136,-0.0043966250368,0.0014302498304,-0.9235666243712,0.0013901250176,0.001389750016,0.0123153750016,12.900632,0.0,0.0,0.0032105000704,0.0,0.0,-0.00135585032192,0.0,0.0,0.0,-4.242020894038035
2023-09-08 15:13:45.600,-0.015354,-0.014405,-0.008694,0.079337,0.079341,0.064395,48.359256,-4.557293,48.294468,50.787003,0.549979,0.549176,0.541416,-0.077069,-0.007775,-9.806749,-0.004331,-0.002011,0.051443,34.325714,-0.077922,-0.0089,-9.806839,-0.004313,-0.001916,0.051361,-0.3256447287936,-0.3354380010624,0.8086875176704,-0.0716692385408,-0.0041349850879999,-9.8050883812352,0.0370703693449642,359.4709880677557,134.9531612621853,0.001386,0.001386,0.012315,-0.383056,-0.004388,0.00147,-0.923714,0.001386,0.001386,0.012315,12.900632,0.0,0.0,0.003194,0.0,0.0,-0.0012804,0.0,0.0,0.0,-4.197974575607191
2023-09-08 15:13:45.625,-0.0153833749248,-0.0141975005312,-0.0085808752896,0.07966512416,0.0796697491584,0.064573124544,48.359256,-4.557293,48.294677374464,50.787003,0.5508439977856,0.5500366227968,0.5421416231424,-0.074297132096,-0.0087524974976,-9.8063671259776,-0.0044116247936,-0.0019085002624,0.0512786254208,34.326157748864,-0.0741870095616,-0.0087887502848,-9.8065177508224,-0.0043761248384,-0.001912875008,0.0512635002496,-0.317361,-0.335853,0.81559,-0.067193,0.00169,-9.807524,0.0286908830427157,359.46934081831165,135.02567604749322,0.0013878749952,0.0013878749952,0.0123137500032,-0.382471626496,-0.0043742500352,0.0015399998208,-0.9239558743808,0.0013878749952,0.0013878749952,0.0123137500032,12.900632,0.0,0.0,0.0031665000704,0.0,0.0,-0.00115465032192,0.0,0.0,0.0,-4.12545979029926
2023-09-08 15:13:45.640,-0.015401,-0.014073,-0.008513,0.079862,0.079867,0.06468,48.359256,-4.557293,48.294803,50.787003,0.551363,0.550553,0.542577,-0.072634,-0.009339,-9.806138,-0.00446,-0.001847,0.05118,34.326424,-0.071946,-0.008722,-9.806325,-0.004414,-0.001911,0.051205,-0.3221906456064,-0.337969884032,0.8144736202368,-0.0741459046656,-0.0028167692288,-9.8047632382208,0.0236631569389029,359.4683524618981,135.0691852156993,0.001389,0.001389,0.012313,-0.382121,-0.004366,0.001582,-0.924101,0.001389,0.001389,0.012313,12.900632,0.0,0.0,0.00315,0.0,0.0,-0.0010792,0.0,0.0,0.0,-4.0819506220931885
2023-09-08 15:13:45.665,-0.0151310006912,-0.0138205006464,-0.0083705003648,0.0801907491584,0.0801957491584,0.0648574995456,48.359256,-4.557293,48.2950273744256,50.787003,0.55223799776,0.5514254977664,0.5433094981248,-0.0749564940544,-0.0094696246656,-9.8034517568768,-0.004453750016,-0.0015488757631999,0.0511481250816,34.327005248512,-0.07672723776,-0.010790744704,-9.8033606325888,-0.0042940003072,-0.0015253759872,0.051233124928,-0.33024,-0.341498,0.812613,-0.085734,-0.010328,-9.800162,0.0155343390303115,359.46760045671715,135.14069732743258,0.0013908749952,0.0013908749952,0.0123123750016,-0.3815441264767999,-0.0043460000512,0.0016469998336,-0.9243391243904,0.0013908749952,0.0013908749952,0.0123123750016,12.900632,0.0,0.0,0.0031225000704,0.0,0.0,-0.00095345032192,0.0,0.0,0.0,-4.010438510359904
2023-09-08 15:13:45.680,-0.014969,-0.013669,-0.008285,0.080388,0.080393,0.064964,48.359256,-4.557293,48.295162,50.787003,0.552763,0.551949,0.543749,-0.07635,-0.009548,-9.80184,-0.00445,-0.00137,0.051129,34.327354,-0.079596,-0.012032,-9.801582,-0.004222,-0.001294,0.05125,-0.329122495232,-0.3380284851968,0.8110076181504,-0.0737699489536,0.0098834612352,-9.8749755692032,0.0106570149894333,359.46714925052834,135.1836048873869,0.001392,0.001392,0.012312,-0.381198,-0.004334,0.001686,-0.924482,0.001392,0.001392,0.012312,12.900632,0.0,0.0,0.003106,0.0,0.0,-0.000878,0.0,0.0,0.0,-3.967530950405575
2023-09-08 15:13:45.705,-0.0150514997888,-0.0132340011136,-0.0085999991936,0.0807173741568,0.0807217491584,0.0651402495488,48.359256,-4.557293,48.2953707494656,50.787003,0.5536498727296,0.5528314977408,0.5444871231104,-0.074246880384,-0.0091923759104,-9.8205443271168,-0.0048881238784,-0.0017587490047999,0.0510058753152,34.3273614999808,-0.0704672733696,-0.0087113835008,-9.8103151026432,-0.0054476218624,-0.0016421241088,0.0509268758272,-0.32726,-0.332246,0.808332,-0.05383,0.043569,-9.999664,224.9991590349801,359.4656452401664,135.25615548246537,0.0013938749952,0.0013932499968,0.0123157499904,-0.3806130014975999,-0.0043108750591999,0.001776624768,-0.924722624384,0.0013938749952,0.0013932499968,0.0123157499904,12.900632,0.0,0.0,0.0030687500953599,0.0,0.0,-0.0009079999232,0.0,0.0,0.0,-3.8949803553271063
2023-09-08 15:13:45.720,-0.015101,-0.012973,-0.008789,0.080915,0.080919,0.065246,48.359256,-4.557293,48.295496,50.787003,0.554182,0.553361,0.54493,-0.072985,-0.008979,-9.831767,-0.005151,-0.001992,0.050932,34.327366,-0.06499,-0.006719,-9.815555,-0.006183,-0.001851,0.050733,-0.326174370368,-0.3381309001088,0.8051771115392,-0.0179037217152,0.0183261422975999,-9.8996821984128,359.9931818022379,359.4647428277888,135.29968613668044,0.001395,0.001394,0.012318,-0.380262,-0.004297,0.001831,-0.924867,0.001395,0.001394,0.012318,12.900632,0.0,0.0,0.0030464,0.0,0.0,-0.000926,0.0,0.0,0.0,-3.851449701112045
2023-09-08 15:13:45.745,-0.0175403687552,-0.0109930050688,-0.007807752512,0.0812437491584,0.0812483741568,0.0654216245504,48.359256,-4.557293,48.295717874432,50.787003,0.5550794977024,0.554254747712,0.5456749980928,-0.0034676779648,0.0037184674943999,-9.7862496165248,-0.0024728818559999,-0.0007113782783999,0.0486438808576,34.3273372500736,0.0042348227839999,0.00639034144,-9.7827219590528,-0.0043411297152,-0.000579128256,0.048364256064,-0.324365,-0.347939,0.799919,0.041973,-0.023745,-9.733047,359.9865569946913,359.4661752186097,135.36614907077006,0.0013968749951999,0.0013958749952,0.0123173750016,-0.3797257513728,-0.0042651250816,0.0018772498816,-0.9250869994368,0.0013968749951999,0.0013958749952,0.0123173750016,12.900632,0.0,0.0,0.0030091500953599,0.0,0.0,-0.0009559999232,0.0,0.0,0.0,-3.784986767022417
2023-09-08 15:13:45.760,-0.019004,-0.009805,-0.007219,0.081441,0.081446,0.065527,48.359256,-4.557293,48.295851,50.787003,0.555618,0.554791,0.546122,0.038243,0.011337,-9.758939,-0.000866,5.7e-05,0.047271,34.32732,0.04577,0.014256,-9.763022,-0.003236,0.000184,0.046943,-0.329138770368,-0.3477256240896,0.8003266267392001,-0.0260650402943999,-0.0619966632064,-9.712373161792,359.98258208302803,359.4670346589693,135.40602710345672,0.001398,0.001397,0.012317,-0.379404,-0.004246,0.001905,-0.925219,0.001398,0.001397,0.012317,12.900632,0.0,0.0,0.0029868,0.0,0.0,-0.0009739999999999,0.0,0.0,0.0,-3.7451087343357594
2023-09-08 15:13:45.780,-0.0191194999999999,-0.0104894999999999,-0.0069575,0.0806805,0.0806849999999999,0.0651295,48.359256,-4.557293,48.294516,50.7875025,0.554959,0.5541345,0.5457814999999999,-0.0130045,0.014494,-9.7801705,0.0006869999999999,-0.0004715,0.045161,34.327856,-0.0168484999999999,0.0144985,-9.7843855,9.24999999999997e-05,-0.0005579999999999,0.0447425,-0.335503770368,-0.3474411240896,0.8008701267392,-0.1167820402944,-0.1129986632064,-9.684808161792,359.98513174521634,359.4666622364025,135.453296121555,0.0013935,0.001393,0.012317,-0.3790219999999999,-0.004258,0.001884,-0.9253755,0.0013935,0.001393,0.012317,12.900632,0.0,0.0,0.002957,0.0,0.0,-0.000998,0.0,0.0,0.0,-3.697839716237468
2023-09-08 15:13:45.785,-0.0191483746304,-0.0106606228096,-0.0068921258368,0.0804903774336,0.0804947524352,0.065030126272,48.359256,-4.557293,48.294182254272,50.7876273734016,0.5547942521088,0.5539703771008,0.5456963760896,-0.025816211008,0.0152832398976,-9.7854783070592,0.0010752450303999,-0.0006036233088,0.044633506752,34.3279899982848,-0.0325029246207999,0.014559124224,-9.7897263066368,0.0009246143488,-0.0007434976255999,0.0441923820416,-0.337095,-0.34737,0.801006,-0.139461,-0.125749,-9.677917,359.9857691526045,359.4665691319525,135.4651132248187,0.0013923750144,0.0013920000128,0.012317,-0.3789265012224,-0.0042609999616,0.0018787500672,-0.9254146244992,0.0013923750144,0.0013920000128,0.012317,12.900632,0.0,0.0,0.0029513357867885,0.0,0.0,-0.0009845287438628,0.0,0.0,0.0,-3.686022612973773
2023-09-08 15:13:45.800,-0.019235,-0.011174,-0.006696,0.07992,0.079924,0.064732,48.359256,-4.557293,48.293181,50.788002,0.5543,0.553478,0.545441,-0.064252,0.017651,-9.801402,0.00224,-0.001,0.043051,34.328392,-0.079467,0.014741,-9.805749,0.003421,-0.0013,0.042542,-0.3298795942144,-0.3441903614336,0.8019236289152,-0.025903015488,-0.093318861632,-9.8098080627328,359.9876814074047,359.46628981383566,135.50056513965328,0.001389,0.001389,0.012317,-0.37864,-0.00427,0.001863,-0.925532,0.001389,0.001389,0.012317,12.900632,0.0,0.0,0.0029343428571428,0.0,0.0,-0.0009441142857142,0.0,0.0,0.0,-3.650570698139205
2023-09-08 15:13:45.825,-0.0226218663295999,-0.0093733796096,-0.006717874944,0.08024812416,0.08025212416,0.0649088745472,48.359256,-4.557293,48.2934191243904,50.788002,0.5551793727488,0.5543536227584,0.5461759981184,0.0099796849663999,0.0403521918848,-9.8068501110528,0.0043012447232,0.0010881196544,0.0380053879168,34.3284113749504,0.0124133897855999,0.0468240428672,-9.8043046286976,0.0060547432576,0.001212493568,0.037373263232,-0.317854,-0.338891,0.803453,0.163359,-0.039269,-10.029625,134.99735308911738,359.4713389914793,135.5481563246776,0.0013908749952,0.0013908749952,0.012317,-0.378255625984,-0.0042600000256,0.0017711252352,-0.9256894995968,0.0013908749952,0.0013908749952,0.012317,12.900632,0.0,0.0,0.0029060215010742,0.0,0.0,-0.0008767573152914,0.0,0.0,0.0,-3.6029795131148887
2023-09-08 15:13:45.840,-0.024654,-0.008293,-0.006731,0.080445,0.080449,0.065015,48.359256,-4.557293,48.293562,50.788002,0.555707,0.554879,0.546617,0.054519,0.053973,-9.810119,0.005538,0.002341,0.034978,34.328423,0.067542,0.066074,-9.803438,0.007635,0.00272,0.034272,-0.3249614053248,-0.3362389886848,0.8055882591104,0.108001263808,0.0185532467071999,-9.8777388519552,0.0022345354010102,359.474368518747,135.5767112306262,0.001392,0.001392,0.012317,-0.378025,-0.004254,0.001716,-0.925784,0.001392,0.001392,0.012317,12.900632,0.0,0.0,0.0028890285714285,0.0,0.0,-0.0008363428571428,0.0,0.0,0.0,-3.574424607166293
2023-09-08 15:13:45.865,-0.0244925941631999,-0.0076641734848,-0.0067797889376,0.0804484765536,0.0804525546784,0.0650141796896,48.359256,-4.557293,48.2935732499712,50.788002,0.555430438208,0.55460361008,0.5463442272608,0.0495490127231999,0.0782204379264,-9.7734759688064,0.0081873682176,0.0024278747776,0.0272630197504,34.3287398741888,0.0440870600448,0.0796727151872,-9.7921792788224,0.0099274941312,0.002076251648,0.026356395264,-0.336807,-0.331819,0.809147,0.015739,0.114923,-9.624597,0.0167733022331164,359.47794949579924,135.60532323727358,0.0013938749952,0.0013932499968,0.0123182499968,-0.3777931255936,-0.0042733749504,0.0015860003328,-0.9258789997568,0.0013938749952,0.0013932499968,0.0123182499968,12.900632,0.0,0.0,0.00286070721536,0.0,0.0,-0.00076898588672,0.0,0.0,0.0,-3.5458126005189
2023-09-08 15:13:45.880,-0.0243957499999999,-0.007286875,-0.0068090625,0.0804505625,0.0804546875,0.0650136875,48.359256,-4.557293,48.29358,50.788002,0.5552644999999999,0.554438375,0.5461805625,0.046567,0.092769,-9.75149,0.009777,0.00248,0.022634,34.32893,0.030014,0.087832,-9.785424,0.011303,0.00169,0.021607,-0.3364792486016,-0.33206890106624,0.8093211757431467,0.01407189288704,0.1118830370295466,-9.62896561863936,0.0254966218833216,359.48009809669827,135.62249055845712,0.001395,0.001394,0.012319,-0.377654,-0.004285,0.001508,-0.925936,0.001395,0.001394,0.012319,12.900632,0.0,0.0,0.0028437142857142,0.0,0.0,-0.0007285714285714,0.0,0.0,0.0,-3.5286452793353646
2023-09-08 15:13:46.465,-0.0206188441632,0.0074277015152,-0.0079507264376,0.0805319140536,0.0805378671784,0.0649944921896,48.359256,-4.557293,48.2938432499712,50.788002,0.548792938208,0.54799423508,0.5397976647607999,-0.0819428609408,-0.0081132639633066,-9.79540302019584,-0.0038700735069866,-0.0043284242551466,-0.0052656219477333,34.328227025076906,-0.0782509631556266,-0.009277989376,-9.795268573922987,-0.0035959733700266,-0.0043627993378133,-0.005376122048,-0.323697,-0.341815,0.816114,-0.050945,-0.006675,-9.799341,350.995906494438,359.46155145489894,135.27954527530588,0.0013930500002133,0.0013930250001066,0.01233947499776,-0.3804249496968533,-0.00433179999488,0.0018199999658666,-0.9248001251242668,0.0013930500002133,0.0013930250001066,0.01233947499776,12.900632,0.0,0.0,0.0021809929296457,0.0,0.0,0.0008475855418514,0.0,0.0,0.0,-3.8715905624866025
2023-09-08 15:13:46.480,-0.020522,0.007805,-0.00798,0.080534,0.08054,0.064994,48.359256,-4.557293,48.29385,50.788002,0.548627,0.547829,0.539634,-0.085238,-0.0107,-9.796529,-0.00422,-0.004503,-0.005981,34.328209,-0.081027,-0.011768,-9.795521,-0.003978,-0.004518,-0.006068,-0.3202458602752,-0.3419530005888,0.8127757357568001,-0.0624114239231999,-0.008030630784,-9.8023957630336,359.9951871545209,359.46107589789995,135.27075176802632,0.001393,0.001393,0.01234,-0.380496,-0.004333,0.001828,-0.924771,0.001393,0.001393,0.01234,12.900632,0.0,0.0,0.002164,0.0,0.0,0.000888,0.0,0.0,0.0,-3.8803840697661656
2023-09-08 15:13:46.505,-0.0204582501632,0.0084187484288,-0.0078931252224,0.0808633741567999,0.0808693741568,0.0651702495488,48.359256,-4.557293,48.2940706244352,50.788002,0.5495101227392,0.5487089977472,0.54036837312,-0.0708517868288,-0.0139318667264,-9.797578997312,-0.0019393808383999,-0.0037861268352,-0.0058610003072,34.327727126233604,-0.0717376487808,-0.0143948682752,-9.798883491392,-0.0017023808256,-0.0037548769536,-0.005821125632,-0.314494,-0.342183,0.807212,-0.081522,-0.01029,-9.807487,359.9933966659948,359.4574949208477,135.26251552080615,0.0013948749952,0.0013948749952,0.0123437499904,-0.3805622498304,-0.0043561249408,0.0018548749312,-0.9247435000704,0.0013948749952,0.0013948749952,0.0123437499904,12.900632,0.0,0.0,0.002142125056,0.0,0.0,0.0006905005056,0.0,0.0,0.0,-3.8886203169863336
2023-09-08 15:13:46.520,-0.02042,0.008787,-0.007841,0.081061,0.081067,0.065276,48.359256,-4.557293,48.294203,50.788002,0.55004,0.549237,0.540809,-0.06222,-0.015871,-9.798209,-0.000571,-0.003356,-0.005789,34.327438,-0.066164,-0.015971,-9.800901,-0.000337,-0.003297,-0.005673,-0.3192010200832,-0.343150504128,0.8091312581888,-0.0879491524223999,-0.0123802589184,-9.7998710925056,359.99232236554525,359.45534631994866,135.2575737387383,0.001396,0.001396,0.012346,-0.380602,-0.00437,0.001871,-0.924727,0.001396,0.001396,0.012346,12.900632,0.0,0.0,0.002129,0.0,0.0,0.000572,0.0,0.0,0.0,-3.8935620990541793
2023-09-08 15:13:46.545,-0.0199803136256,0.0088879372415999,-0.0077361565184,0.0809778752127999,0.0809837189632,0.0652364688512,48.359256,-4.557293,48.2944323744128,50.7878459066496,0.5503834366208,0.5495788741248,0.5411775928064,-0.0860018141184,-0.0110566373248,-9.7935490119296,0.0016608692864,-0.002552877056,-0.0057752500352,34.327419250048,-0.0863614482944,-0.0110572625791999,-9.7935460188288,0.0018654943616,-0.0025613768832,-0.0056555000448,-0.327046,-0.344763,0.81233,-0.098661,-0.015864,-9.787178,359.9955810546628,359.4534484021109,135.24769024207413,0.0013978749952,0.0013972499968,0.0123453750016,-0.3806813747968,-0.0043956249344,0.0018516250496,-0.9246938750848,0.0013978749952,0.0013972499968,0.0123453750016,12.900632,0.0,0.0,0.002107125056,0.0,0.0,0.0003745005056,0.0,0.0,0.0,-3.903445595718353
2023-09-08 15:13:46.560,-0.0197165,0.0089485,-0.00767325,0.080928,0.08093375,0.06521275,48.359256,-4.557293,48.29457,50.78775225,0.5505895,0.549784,0.5413987499999999,-0.100271,-0.008168,-9.790753,0.003,-0.002071,-0.005767,34.327408,-0.09848,-0.008109,-9.789133,0.003187,-0.00212,-0.005645,-0.3278445034069333,-0.3443362481792,0.8123990002944,-0.0951966102186666,-0.017159630528,-9.787941378257068,359.99753628148096,359.45230964363446,135.2417601035927,0.001399,0.001398,0.012345,-0.380729,-0.004411,0.00184,-0.924674,0.001399,0.001398,0.012345,12.900632,0.0,0.0,0.002094,0.0,0.0,0.000256,0.0,0.0,0.0,-3.909375734199784
2023-09-08 15:13:46.665,-0.0178698136256,0.0093724372416,-0.0072329065184,0.0805788752128,0.0805839689632,0.0650467188512,48.359256,-4.557293,48.2955333744128,50.7870966566496,0.5520319366208,0.5512198741248,0.5429468428063999,-0.0830160105173333,-0.0143008712618666,-9.7925196239232,0.0079691219712,0.0004656234538666,-0.0059113749119999,34.3259695008768,-0.0810692606122666,-0.0159568702165333,-9.794555371694932,0.0078664971477333,0.0004682484223999,-0.0058759998592,-0.333434,-0.341349,0.812882,-0.070946,-0.026229,-9.793285,45.034977677432494,359.45727288750953,135.20034960419034,0.0013937500032,0.0013927500032,0.0123415000021333,-0.3810623747968,-0.0044941249493333,0.0015241251925333,-0.9245375000832,0.0013937500032,0.0013927500032,0.0123415000021333,12.900632,0.0,0.0,0.0020021250559999,0.0,0.0,-0.0005734994943999,0.0,0.0,0.0,-3.9507862336021446
2023-09-08 15:13:46.680,-0.017606,0.009433,-0.00717,0.080529,0.080534,0.065023,48.359256,-4.557293,48.295671,50.787003,0.552238,0.551425,0.543168,-0.080551,-0.015177,-9.792772,0.008679,0.000828,-0.005932,34.325764,-0.078582,-0.017078,-9.79533,0.008535,0.000838,-0.005909,-0.327478974592,-0.336935231168,0.8123899979008,-0.0834950535424,-0.0215272299391999,-9.7927798728448,0.0401070456591576,359.4579819258062,135.1944337897149,0.001393,0.001392,0.012341,-0.38111,-0.004506,0.001479,-0.924518,0.001393,0.001392,0.012341,12.900632,0.0,0.0,0.001989,0.0,0.0,-0.000692,0.0,0.0,0.0,-3.956702048077574
2023-09-08 15:13:46.705,-0.017421625472,0.0095261247616,-0.007132500096,0.0808577491584,0.0808627491584,0.0651992495488,48.359256,-4.557293,48.2958716244864,50.787003,0.5531248727296,0.5523081227392,0.5439054981120001,-0.0810891236223999,-0.0156938736768,-9.7954932430336,0.0089127494015999,0.000943624704,-0.0057963753472,34.3257565000192,-0.0819357414143999,-0.016278002048,-9.7948243762944,0.0089006240639999,0.0010167495423999,-0.0057046255232,-0.317554,-0.329579,0.81157,-0.10441,-0.013691,-9.791938,0.0518526503905143,359.46073927813643,135.1863049718063,0.0013948749952,0.0013938749952,0.0123447499904,-0.3811749998336,-0.0045228749568,0.0013752502656,-0.9244911250688,0.0013948749952,0.0013938749952,0.0123447499904,12.900632,0.0,0.0,0.00195600008448,0.0,0.0,-0.00073974987776,0.0,0.0,0.0,-3.964830865986187
2023-09-08 15:13:46.720,-0.017311,0.009582,-0.00711,0.081055,0.08106,0.065305,48.359256,-4.557293,48.295992,50.787003,0.553657,0.552838,0.544348,-0.081412,-0.016004,-9.797126,0.009053,0.001013,-0.005715,34.325752,-0.083948,-0.015798,-9.794521,0.00912,0.001124,-0.005582,-0.3210572649472,-0.3341112693376,0.8133745076992001,-0.0963178404736,-0.0226951634176,-9.7966825202432,0.0589000613394486,359.4623937008287,135.18142764776542,0.001396,0.001395,0.012347,-0.381214,-0.004533,0.001313,-0.924475,0.001396,0.001395,0.012347,12.900632,0.0,0.0,0.0019362,0.0,0.0,-0.0007684,0.0,0.0,0.0,-3.969708190027063
2023-09-08 15:13:46.745,-0.0171217296512,0.0095067918592,-0.0071769789952,0.0811631247232,0.0811680205567999,0.0653652081792,48.359256,-4.557293,48.2961694995456,50.787003,0.5542592901247999,0.5534376859648,0.5448928944384,-0.090574476544,-0.0175127461376,-9.7967122510592,0.00888112544,0.0010711248512,-0.0054925005696,34.3254657507328,-0.090335483648,-0.016916747136,-9.7976266170496,0.0088000008192,0.0010840001024,-0.005463250304,-0.326896,-0.341665,0.816382,-0.082831,-0.037702,-9.80459,0.0699294706603567,359.4650794336179,135.171186053396,0.0013972499968,0.0013968749951999,0.0123463750016,-0.3812958747904,-0.0045479999616,0.0012155002496,-0.9244412500864,0.0013972499968,0.0013968749951999,0.0123463750016,12.900632,0.0,0.0,0.00190320008448,0.0,0.0,-0.00081614987776,0.0,0.0,0.0,-3.9799497843964673
2023-09-08 15:13:46.760,-0.0170081666666666,0.0094616666666666,-0.0072171666666666,0.081228,0.0812328333333333,0.0654013333333333,48.359256,-4.557293,48.296276,50.787003,0.5546206666666667,0.5537975,0.5452198333333333,-0.096072,-0.018418,-9.796464,0.008778,0.001106,-0.005359,34.325294,-0.094168,-0.017588,-9.79949,0.008608,0.00106,-0.005392,-0.32691302507264,-0.3404919949952,0.81608282372352,-0.08165109496576,-0.03550944064512,-9.80559522928896,0.0765471614294779,359.46669088429223,135.16504105482468,0.001398,0.001398,0.012346,-0.381345,-0.004557,0.001157,-0.924421,0.001398,0.001398,0.012346,12.900632,0.0,0.0,0.0018834,0.0,0.0,-0.0008448,0.0,0.0,0.0,-3.986094782967797
2023-09-08 15:13:46.945,-0.0156075629845333,0.0089051251925333,-0.0077128123285333,0.0820281247232,0.0820321872234666,0.0658468748458666,48.359256,-4.557293,48.2975894995456,50.787003,0.5590776234581334,0.5582351859647999,0.5492520611050667,-0.0851671787724799,-0.01597507584512,-9.80250979790848,-0.0013229965056,-0.0009761742796799,-0.00359410061056,34.32457805024768,-0.08398282852352,-0.0138815262822399,-9.80367469855232,-0.0015827214745599,-0.00085659933696,-0.00368907558912,-0.327123,-0.326025,0.812393,-0.067099,-0.008468,-9.817993,0.0905917845239401,359.47686661121355,135.11103550413313,0.0014007749990399,0.00139984999936,0.01234692499968,-0.3817806748492799,-0.00452092501248,0.00101270004992,-0.92424155006208,0.0014007749990399,0.00139984999936,0.01234692499968,12.900632,0.0,0.0,0.00163920008448,0.0,0.0,-0.00119814987776,0.0,0.0,0.0,-4.040100333659353
2023-09-08 15:13:46.960,-0.015494,0.00886,-0.007753,0.082093,0.082097,0.065883,48.359256,-4.557293,48.297696,50.787003,0.559439,0.558595,0.549579,-0.084283,-0.015777,-9.803,-0.002142,-0.001145,-0.003451,34.32452,-0.083157,-0.013581,-9.804014,-0.002409,-0.001012,-0.003551,-0.3247893650432,-0.3296321403904,0.810660492608,-0.0670209996672,-0.009364253824,-9.8158794909824,0.0917305430004448,359.4776916739588,135.10665665550084,0.001401,0.0014,0.012347,-0.381816,-0.004518,0.001001,-0.924227,0.001401,0.0014,0.012347,12.900632,0.0,0.0,0.0016194,0.0,0.0,-0.0012268,0.0,0.0,0.0,-4.044479182291639
2023-09-08 15:13:46.980,-0.01524,0.0088659999999999,-0.0079835,0.0805565,0.0805615,0.0649925,48.359256,-4.557293,48.29679,50.787003,0.5484115,0.547614,0.539393,-0.074604,-0.0157754999999999,-9.807853,-0.0029725,-0.0013315,-0.0030715,34.3240205,-0.0748655,-0.015523,-9.8075125,-0.003142,-0.001321,-0.002993,-0.3216778650432,-0.3344416403904,0.808350492608,-0.0669169996672,-0.010559253824,-9.8130614909824,0.0860582608286496,359.47697547671487,135.10261730304518,0.0013935,0.001393,0.012346,-0.3818485,-0.004505,0.001049,-0.9242135,0.0013935,0.001393,0.012346,12.900632,0.0,0.0,0.001593,0.0,0.0,-0.001265,0.0,0.0,0.0,-4.048518534747302
2023-09-08 15:13:46.985,-0.0151765008128,0.0088674999808,-0.0080411242624,0.0801723799168,0.0801776299136,0.0647698778496,48.359256,-4.557293,48.2965635028992,50.787003,0.545654660288,0.5448687851392,0.5368465325952,-0.0721842809728,-0.0157751250047999,-9.8090662344704,-0.0031801223424,-0.0013781244032,-0.0029766262144,34.3238956265984,-0.0727926515328,-0.0160084937856,-9.8083871138048,-0.0033252476544,-0.0013982490112,-0.0028535017856,-0.3209,-0.335644,0.807773,-0.066891,-0.010858,-9.812357,0.0846402084370038,359.4767964296957,135.1016074778572,0.001391625024,0.0013912500224,0.0123457500032,-0.381856624896,-0.0045017500416,0.0010609998464,-0.9242101250432,0.001391625024,0.0013912500224,0.0123457500032,12.900632,0.0,0.0,0.001589120049664,0.0,0.0,-0.001263720016384,0.0,0.0,0.0,-4.049528359935295
2023-09-08 15:13:47.000,-0.014986,0.008872,-0.008214,0.07902,0.079026,0.064102,48.359256,-4.557293,48.295884,50.787003,0.537384,0.536633,0.529207,-0.064925,-0.015774,-9.812706,-0.003803,-0.001518,-0.002692,34.323521,-0.066574,-0.017465,-9.811011,-0.003875,-0.00163,-0.002435,-0.3219665045504,-0.3356117498624,0.8109065133696,-0.0713846441728,-0.014675516288,-9.8139436317696,0.0803859786568545,359.4762592794709,135.09857795058952,0.001386,0.001386,0.012345,-0.381881,-0.004492,0.001097,-0.9242,0.001386,0.001386,0.012345,12.900632,0.0,0.0,0.00157748,0.0,0.0,-0.00125988,0.0,0.0,0.0,-4.0525578872029655
2023-09-08 15:13:47.025,-0.0146535008512,0.0085176259072,-0.0082164999936,0.0793487491584,0.0793553741568,0.0642813745408,48.359256,-4.557293,48.2960771245056,50.787003,0.5382258728448,0.5374717478528,0.5299144981888,-0.0858224465024,-0.0157483750656,-9.8097103826688,-0.0044342483839999,-0.0017548743936,-0.0022538761216,34.323377875366404,-0.0863045744896,-0.015521254976,-9.8095522537344,-0.0044899984256,-0.0018349994752,-0.0021218758016,-0.323744,-0.335558,0.816129,-0.078874,-0.021038,-9.816588,0.0720781118956509,359.4746120300269,135.09399429996265,0.0013878749952,0.0013878749952,0.0123443750016,-0.381918499904,-0.0044776250368,0.0011701248128,-0.92418437504,0.0013878749952,0.0013878749952,0.0123443750016,12.900632,0.0,0.0,0.001558080049664,0.0,0.0,-0.001253480016384,0.0,0.0,0.0,-4.057141537829835
2023-09-08 15:13:47.040,-0.014454,0.008305,-0.008218,0.079546,0.079553,0.064389,48.359256,-4.557293,48.296193,50.787003,0.538731,0.537975,0.530339,-0.098361,-0.015733,-9.807913,-0.004813,-0.001897,-0.001991,34.323292,-0.098143,-0.014355,-9.808677,-0.004859,-0.001958,-0.001934,-0.3251135058432,-0.3401543946112,0.8116664809599999,-0.0710492166144,-0.0164637304832,-9.8144703659648,0.0670933578098194,359.4736236736133,135.09124409081184,0.001389,0.001389,0.012344,-0.381941,-0.004469,0.001214,-0.924175,0.001389,0.001389,0.012344,12.900632,0.0,0.0,0.00154644,0.0,0.0,-0.00124964,0.0,0.0,0.0,-4.05989174698064
2023-09-08 15:13:47.065,-0.0142029292141714,0.0083194642486857,-0.0084554101065142,0.0795719820763428,0.0795788927908571,0.0644065892406857,48.359256,-4.557293,48.296674516624456,50.78709219620023,0.5392077844937142,0.5384497309275429,0.5307948024045714,-0.0764498060928,-0.014242378816,-9.812441113408,-0.0053498736255999,-0.0019526248576,-0.0016616258432,34.32326075008,-0.0760655565184,-0.0146718741888,-9.8125232401536,-0.0053671236992,-0.0020004998912,-0.0016677506816,-0.327396,-0.347815,0.804229,-0.058008,-0.00884,-9.810941,0.0576037686213755,359.47186899485774,135.0875198746775,0.0013908749952,0.0013902499968,0.0123427500032,-0.3819716249216,-0.0044515000447999,0.0012964997888,-0.924162500032,0.0013908749952,0.0013902499968,0.0123427500032,12.900632,0.0,0.0,0.001527040049664,0.0,0.0,-0.001243240016384,0.0,0.0,0.0,-4.063615963114984
2023-09-08 15:13:47.080,-0.0140522857142857,0.0083281428571428,-0.0085978571428571,0.0795875714285714,0.0795944285714285,0.0644171428571428,48.359256,-4.557293,48.29696342857143,50.787145714285714,0.5394938571428571,0.5387345714285714,0.5310682857142858,-0.063303,-0.013348,-9.815158,-0.005672,-0.001986,-0.001464,34.323242,-0.062819,-0.014862,-9.814831,-0.005672,-0.002026,-0.001508,-0.3275315898642286,-0.3473119621394285,0.8051116466230857,-0.0579227139218285,-0.0085619630994285,-9.811414841307428,0.0519099762388525,359.4708161804172,135.08528532974248,0.001392,0.001391,0.012342,-0.38199,-0.004441,0.001346,-0.924155,0.001392,0.001391,0.012342,12.900632,0.0,0.0,0.0015154,0.0,0.0,-0.0012394,0.0,0.0,0.0,-4.065850508050005
2023-09-08 15:13:47.320,-0.011642,0.008467,-0.010877,0.079837,0.079843,0.064586,48.359256,-4.557293,48.301586,50.788002,0.544071,0.543292,0.535444,-0.0710027142857143,-0.0134165714285714,-9.813941714285717,0.0020457142857142,-0.0002057142857142,0.0009282857142857,34.323164000000006,-0.0686587142857142,-0.0122682857142857,-9.814689571428572,0.0020482857142857,-0.0001222857142857,0.0009134285714285,-0.3297010184356572,-0.3392633907108571,0.8192339323373714,-0.0565581424932571,-0.0041133916708571,-9.818996269878856,0.0190058285756252,359.4697357457178,135.07875361087798,0.0013928571428571,0.0013918571428571,0.0123462857142857,-0.382044,-0.0043398571428571,0.0016151428571428,-0.9241327142857144,0.0013928571428571,0.0013918571428571,0.0123462857142857,12.900632,0.0,0.0,0.0013291599999999,0.0,0.0,-0.00117796,0.0,0.0,0.0,-4.072382226914499
2023-09-08 15:13:47.345,-0.0114949170432,0.0084828332928,-0.0110876244608,0.0797695001728,0.07977529184,0.0645539167488,48.359256,-4.557293,48.3018462076672,50.7877938755328,0.5444282907519999,0.5436476240896,0.535817957376,-0.0718047658038857,-0.0134237142674285,-9.813815018181486,0.0028496407990857,-2.026833188571416e-05,0.0011774815049142,34.3231558750208,-0.0692670162998857,-0.0119981078345142,-9.814674839323429,0.0028524800841142,7.601734948571408e-05,0.0011656600685714,-0.329927,-0.338425,0.820705,-0.056416,-0.00365,-9.819786,0.0155783219684784,359.46962320072475,135.07807322523806,0.0013929464283428,0.0013919464283428,0.0123467321417142,-0.3820496249855999,-0.0043293214555428,0.0016431784996571,-0.9241303928630856,0.0013929464283428,0.0013919464283428,0.0123467321417142,12.900632,0.0,0.0,0.001309760049664,0.0,0.0,-0.001171560016384,0.0,0.0,0.0,-4.073062612554423
2023-09-08 15:13:47.360,-0.0114066666666666,0.0084923333333333,-0.011214,0.079729,0.0797346666666666,0.0645346666666666,48.359256,-4.557293,48.30200233333333,50.787669,0.5446426666666666,0.543861,0.5360423333333334,-0.072286,-0.013428,-9.813739,0.003332,9.1e-05,0.001327,34.323151,-0.069632,-0.011836,-9.814666,0.003335,0.000195,0.001317,-0.3291759967957333,-0.3380627484544,0.8196274954026667,-0.0591538866816,-0.0051130062421333,-9.818696120349868,0.0135218039650874,359.4695556732679,135.07766499106722,0.001393,0.001392,0.012347,-0.382053,-0.004323,0.00166,-0.924129,0.001393,0.001392,0.012347,12.900632,0.0,0.0,0.0012981199999999,0.0,0.0,-0.00116772,0.0,0.0,0.0,-4.073470846725257
2023-09-08 15:13:47.440,-0.010936,0.008543,-0.011888,0.079513,0.079518,0.064432,48.359256,-4.557293,48.302835,50.787003,0.545786,0.544999,0.537239,-0.070472,-0.009492,-9.811670333333334,0.0051093333333333,-9.233333333333332e-05,0.0012196666666666,34.32225833333334,-0.070058,-0.0085033333333333,-9.811418666666668,0.0051656666666666,-1.9e-05,0.001169,-0.3251706634624,-0.3361307484544,0.813880828736,-0.0737558866816,-0.0129156729088,-9.8128834536832,0.0339954958444288,359.474368518747,135.07777958262625,0.0013916666666666,0.0013906666666666,0.0123443333333333,-0.382049,-0.004341,0.001487,-0.924131,0.001388,0.001388,0.012344,12.900632,0.0,0.0,0.0012360399999999,0.0,0.0,-0.00114724,0.0,0.0,0.0,-4.073356255166232
2023-09-08 15:13:47.465,-0.0111003745792,0.0086754996608,-0.0121073744384,0.0798423741568,0.0798473741568,0.064610124544,48.359256,-4.557293,48.3031449992064,50.787003,0.5466459977984001,0.545855247808,0.5379602481536,-0.0699051264512,-0.0082620031488,-9.811023876654934,0.0056647485781333,-0.0001496248533333,0.0011861250858666,34.321979375714136,-0.0701911246592,-0.0074618776661333,-9.810403877597864,0.0057377485354666,-8.587482880000001e-05,0.0011227501184,-0.323919,-0.335527,0.812085,-0.078319,-0.015354,-9.811067,0.0403935081777694,359.47587252910887,135.07781539239676,0.0013912500010666,0.0013902500010666,0.0123435000021333,-0.3820496249984,-0.0043572499584,0.0014251251583999,-0.9241303750016,0.0013898749952,0.0013892499968,0.0123433750016,12.900632,0.0,0.0,0.0012166400496639,0.0,0.0,-0.001140840016384,0.0,0.0,0.0,-4.073320445395723
2023-09-08 15:13:47.480,-0.011199,0.008755,-0.012239,0.08004,0.080045,0.064717,48.359256,-4.557293,48.303331,50.787003,0.547162,0.546369,0.538393,-0.069565,-0.007524,-9.810636,0.005998,-0.000184,0.001166,34.321812,-0.070271,-0.006837,-9.809795,0.006081,-0.000126,0.001095,-0.3286282700928,-0.3364930041216,0.8140038831872,-0.077600871936,-0.0115244836608,-9.808548864256,0.0442323417840995,359.4767749414865,135.07783687840575,0.001391,0.00139,0.012343,-0.38205,-0.004367,0.001388,-0.92413,0.001391,0.00139,0.012343,12.900632,0.0,0.0,0.001205,0.0,0.0,-0.001137,0.0,0.0,0.0,-4.073298959386733
2023-09-08 15:13:47.505,-0.0110202504576,0.0086656252288,-0.0123221247872,0.0803693741568,0.0803743741568,0.0648938745472,48.359256,-4.557293,48.3036391242112,50.787003,0.5480332477696,0.5472364977792,0.5391198731392001,-0.0803880972928,-0.0078396241919999,-9.8079947567616,0.0063879990016,0.0001391241728,0.0014634992383999,34.321408876032,-0.0800965998464,-0.0077969975424,-9.807601255616,0.0064541240448,0.0001046244095999,0.0015468738432,-0.336477,-0.338103,0.817202,-0.076404,-0.005142,-9.804352,0.0523969694632133,359.478243142078,135.0803077525718,0.0013928749952,0.0013918749951999,0.0123467499904,-0.3820300000512,-0.00438262496,0.0013167501823999,-0.9241387499776,0.0013928749952,0.0013918749951999,0.0123467499904,12.900632,0.0,0.0,0.00118225005824,0.0,0.0,-0.00110525008128,0.0,0.0,0.0,-4.070828085220683
2023-09-08 15:13:47.520,-0.010913,0.008612,-0.012372,0.080567,0.080572,0.065,48.359256,-4.557293,48.303824,50.787003,0.548556,0.547757,0.539556,-0.086882,-0.008029,-9.80641,0.006622,0.000333,0.001642,34.321167,-0.085992,-0.008373,-9.806285,0.006678,0.000243,0.001818,-0.3330239852672,-0.338241750592,0.8138644857599999,-0.0731909862912,-0.0098343950208,-9.8051627534592,0.0572957795130823,359.4791240684466,135.08179028719218,0.001394,0.001393,0.012349,-0.382018,-0.004392,0.001274,-0.924144,0.001394,0.001393,0.012349,12.900632,0.0,0.0,0.0011685999999999,0.0,0.0,-0.0010862,0.0,0.0,0.0,-4.069345550600303
2023-09-08 15:13:47.545,-0.0109698748544,0.0089388741632,-0.0124776247296,0.0808963741568,0.0809013741568,0.0651768745472,48.359256,-4.557293,48.3041402491904,50.787003,0.5494378727424,0.5486357477504,0.5402891231232,-0.0745082816768,-0.0117152405632,-9.8084324948224,0.0065826251008,0.0001230005375999,0.0015863751423999,34.3208238758784,-0.0741870302208,-0.0123311148672,-9.8088799933568,0.0065623752959999,8.30004096e-05,0.0016542504192,-0.327269,-0.338473,0.808302,-0.067836,-0.017655,-9.806514,0.0651739290280167,359.48026998110333,135.0826497216847,0.0013952499968,0.0013948749952,0.0123483750016,-0.3820105000192,-0.0044088749568,0.0012065001728,-0.9241464999936,0.0013952499968,0.0013948749952,0.0123483750016,12.900632,0.0,0.0,0.00114585005824,0.0,0.0,-0.00105445008128,0.0,0.0,0.0,-4.068486116107778
2023-09-08 15:13:47.560,-0.011004,0.009135,-0.012541,0.081094,0.081099,0.065283,48.359256,-4.557293,48.30433,50.787003,0.549967,0.549163,0.540729,-0.067084,-0.013927,-9.809646,0.006559,-3e-06,0.001553,34.320618,-0.067104,-0.014706,-9.810437,0.006493,-1.3e-05,0.001556,-0.323749609984,-0.3386237506432,0.8064806172287999,-0.0752074064512,-0.0149186133248,-9.8007063502208,0.0699008510059604,359.480957533391,135.0831653859005,0.001396,0.001396,0.012348,-0.382006,-0.004419,0.001166,-0.924148,0.001396,0.001396,0.012348,12.900632,0.0,0.0,0.0011321999999999,0.0,0.0,-0.0010354,0.0,0.0,0.0,-4.067970451891995
2023-09-08 15:13:47.580,-0.0105225,0.008882,-0.012018,0.080151,0.0801555,0.064788,48.359256,-4.557293,48.303036500000005,50.787003,0.5491135,0.5483119999999999,0.5402495,-0.0749305,-0.0130115,-9.8047175,0.006366,-0.000336,0.001791,34.320801,-0.07541,-0.0142495,-9.8049875,0.00622,-0.0003665,0.0017715,-0.319057109984,-0.3388247506432,0.8040521172288,-0.0850359064512,-0.0112701133248,-9.7929628502208,0.0755158373982424,359.4812726601783,135.08399617470343,0.001391,0.001391,0.012347,-0.3819995,-0.0044355,0.00112,-0.924151,0.001391,0.001391,0.012347,12.900632,0.0,0.0,0.001114,0.0,0.0,-0.00101,0.0,0.0,0.0,-4.067139663089051
2023-09-08 15:13:47.585,-0.0104021265408,0.0088187508096,-0.0118872516736,0.0799152530176,0.0799196280192,0.064664251584,48.359256,-4.557293,48.3027131291392,50.787003,0.5489001277312,0.5480992527231999,0.5401296265344,-0.0768920998912,-0.0127826279296,-9.8034853907712,0.0063177506175999,-0.0004192489344,0.0018504992384,34.3208467494144,-0.0774864734208,-0.0141353764608,-9.8036251424384,0.0061517508736,-0.0004548738688,0.0018253743104,-0.317884,-0.338875,0.803445,-0.087493,-0.010358,-9.791027,0.0769195660283565,359.4813514408667,135.08420386924564,0.001389750016,0.001389750016,0.0123467500032,-0.3819978750208,-0.0044396249472,0.0011085001472,-0.9241517499904,0.001389750016,0.001389750016,0.0123467500032,12.900632,0.0,0.0,0.0011126666837333,0.0,0.0,-0.0009973334954666,0.0,0.0,0.0,-4.06693196854684
2023-09-08 15:13:47.600,-0.010041,0.008629,-0.011495,0.079208,0.079212,0.064293,48.359256,-4.557293,48.301743,50.787003,0.54826,0.547461,0.53977,-0.082777,-0.012096,-9.799789,0.006173,-0.000669,0.002029,34.320984,-0.083716,-0.013793,-9.799538,0.005947,-0.00072,0.001987,-0.323910275712,-0.3409367587967999,0.8024298706688,-0.0778280837632,-0.0140570157824,-9.7985180319616,0.0811308237905245,359.48158778696563,135.08482696350637,0.001386,0.001386,0.012346,-0.381993,-0.004452,0.001074,-0.924154,0.001386,0.001386,0.012346,12.900632,0.0,0.0,0.0011086666666666,0.0,0.0,-0.0009593333333333,0.0,0.0,0.0,-4.066308874286108
2023-09-08 15:13:47.625,-0.0101053748352,0.0087733746304,-0.0116487496064,0.0795367491584,0.0795407491584,0.064471124544,48.359256,-4.557293,48.3020473742208,50.787003,0.5491168728064,0.5483147478143999,0.5404906231552,-0.0770045147776,-0.0159728650752,-9.8048433620608,0.00550112672,-0.0009033744,0.0019640001664,34.3212533743104,-0.0763197689344,-0.0154267458176,-9.8047767365888,0.0054638762368,-0.0009599993856,0.0019813750144,-0.333954,-0.344373,0.800738,-0.06172,-0.020222,-9.811003,0.0871468652382926,359.48112225994885,135.0853641100642,0.0013878749952,0.0013872499967999,0.0123453750016,-0.3819880000128,-0.0044751249408,0.00102712512,-0.9241558749952,0.0013878749952,0.0013872499967999,0.0123453750016,12.900632,0.0,0.0,0.0011020000170666,0.0,0.0,-0.0008960001621333,0.0,0.0,0.0,-4.065771727728276
2023-09-08 15:13:47.640,-0.010144,0.00886,-0.011741,0.079734,0.079738,0.064578,48.359256,-4.557293,48.30223,50.787003,0.549631,0.548827,0.540923,-0.073541,-0.018299,-9.807876,0.005098,-0.001044,0.001925,34.321415,-0.071882,-0.016407,-9.80792,0.005174,-0.001104,0.001978,-0.3301848589184,-0.3422276158464,0.8049897681407999,-0.0686372795135999,-0.0176254889216,-9.8064771056896,0.0907565147487224,359.48084294183195,135.08568640019905,0.001389,0.001388,0.012345,-0.381985,-0.004489,0.000999,-0.924157,0.001389,0.001388,0.012345,12.900632,0.0,0.0,0.001098,0.0,0.0,-0.000858,0.0,0.0,0.0,-4.065449437593429
2023-09-08 15:13:47.665,-0.01021812481024,0.00870700039168,-0.01135487598848,0.0797442499737599,0.07974824997376,0.06458712497664,48.359256,-4.557293,48.3020681254144,50.787003,0.55009012382464,0.54928412382976,0.5413694988569601,-0.0702885083263999,-0.0149308836223999,-9.8032122619392,0.0046273762048,-0.0012714994176,0.0021056245376,34.3222612478336,-0.0705301284608,-0.0145595047296,-9.8029937626112,0.0045465016064,-0.0012283746816,0.0021304996096,-0.323903,-0.338652,0.812076,-0.080166,-0.013298,-9.798934,0.0953043556050708,359.4801267464215,135.08744107895464,0.0013908749952,0.0013898749952,0.0123443750016,-0.3819706250368,-0.0045102499456,0.000964625088,-0.9241626249856,0.0013908749952,0.0013898749952,0.0123443750016,12.900632,0.0,0.0,0.0010913333504,0.0,0.0,-0.0007946668288,0.0,0.0,0.0,-4.0636947588378405
2023-09-08 15:13:47.680,-0.0102626,0.0086152,-0.0111232,0.0797504,0.0797544,0.0645926,48.359256,-4.557293,48.301971,50.787003,0.5503656,0.5495584,0.5416374,-0.068337,-0.01291,-9.800414,0.004345,-0.001408,0.002214,34.322769,-0.069719,-0.013451,-9.800038,0.00417,-0.001303,0.002222,-0.32415357606912,-0.33910702694144,0.81179129878528,-0.08161493118208,-0.01304794893312,-9.7972806179456,0.0980330787468838,359.4796970262417,135.0884938933952,0.001392,0.001391,0.012344,-0.381962,-0.004523,0.000944,-0.924166,0.001392,0.001391,0.012344,12.900632,0.0,0.0,0.0010873333333333,0.0,0.0,-0.0007566666666666,0.0,0.0,0.0,-4.062641944397285
2023-09-08 15:13:47.840,-0.010737,0.007636,-0.008652,0.079816,0.07982,0.064651,48.359256,-4.557293,48.300935,50.787003,0.553304,0.552484,0.544495,-0.0779258,-0.0067155999999999,-9.794754,-0.0020069999999999,-0.0021304,0.0029804,34.3216034,-0.0795821999999999,-0.0072806,-9.7940652,-0.0022091999999999,-0.0021805999999999,0.0028596,-0.3268263760691199,-0.34396062694144,0.80875449878528,-0.09707013118208,-0.01038074893312,-9.7796446179456,0.0812568745054533,359.4687879098224,135.1072869090755,0.001392,0.001391,0.0123448,-0.3818108,-0.004555,0.0011144,-0.9242284,0.001392,0.001391,0.0123448,12.900632,0.0,0.0,0.0010446666666666,0.0,0.0,-0.0003513333333333,0.0,0.0,0.0,-4.043848928716983
2023-09-08 15:13:47.865,-0.0108332497536,0.007461000448,-0.0082645009919999,0.0801447491584,0.0801487491584,0.064829124544,48.359256,-4.557293,48.3011562494336,50.787003,0.5541764977664,0.553352747776,0.5452256231296,-0.07942404616448,-0.00574772747776,-9.793869627264,-0.0029994974591999,-0.00224327471104,0.00310014969344,34.32142127546624,-0.0811233210547199,-0.0063164774681599,-9.79313195238912,-0.00320594744832,-0.0023177246489599,0.00295922474496,-0.327244,-0.344719,0.80828,-0.099485,-0.009964,-9.776889,0.0786355993032115,359.4670833647456,135.11022331025833,0.001392,0.001391,0.01234492499968,-0.38178717506048,-0.0045599999872,0.00114102493184,-0.92423814997504,0.001392,0.001391,0.01234492499968,12.900632,0.0,0.0,0.0010380000170666,0.0,0.0,-0.0002880001621333,0.0,0.0,0.0,-4.040912527534147
2023-09-08 15:13:47.880,-0.010891,0.007356,-0.008032,0.080342,0.080346,0.064936,48.359256,-4.557293,48.301289,50.787003,0.5547,0.553874,0.545664,-0.080323,-0.005167,-9.793339,-0.003595,-0.002311,0.003172,34.321312,-0.082048,-0.005738,-9.792572,-0.003804,-0.0024,0.003019,-0.32380336032,-0.3413451106048,0.8049548608128,-0.0881753267456,-0.0088206201216,-9.7873200445056,0.0770628234450957,359.4660606307176,135.11198516299558,0.001392,0.001391,0.012345,-0.381773,-0.004563,0.001157,-0.924244,0.001392,0.001391,0.012345,12.900632,0.0,0.0,0.001034,0.0,0.0,-0.00025,0.0,0.0,0.0,-4.0391506747969
2023-09-08 15:13:47.905,-0.0110391246208,0.0072335003136,-0.0078976253439999,0.0806707491584,0.0806747491584,0.0651122495488,48.359256,-4.557293,48.3014964994688,50.787003,0.5555831227392,0.5547533727488,0.5464002481152,-0.08135424736,-0.0049720004992,-9.79538586976,-0.0045193726336,-0.0021097505152,0.0032601247744,34.3210476256768,-0.0805805037568,-0.0046855026944,-9.7956369921536,-0.0046264978944,-0.0021181257216,0.0032827493248,-0.318069,-0.335722,0.799413,-0.069326,-0.006915,-9.804705,0.0682894296671005,359.4644133812736,135.11674786247505,0.0013938749952,0.0013928749952,0.0123487499904,-0.3817348750976,-0.00454737504,0.0012332498048,-0.92425962496,0.0013938749952,0.0013928749952,0.0123487499904,12.900632,0.0,0.0,0.00102187503104,0.0,0.0,-0.00029424988672,0.0,0.0,0.0,-4.034387975317429
2023-09-08 15:13:47.920,-0.011128,0.00716,-0.007817,0.080868,0.080872,0.065218,48.359256,-4.557293,48.301621,50.787003,0.556113,0.555281,0.546842,-0.081973,-0.004855,-9.796614,-0.005074,-0.001989,0.003313,34.320889,-0.0797,-0.004054,-9.797476,-0.00512,-0.001949,0.003441,-0.3212486385664,-0.3403105195776,0.8087981650432,-0.075624151872,-0.0040556128,-9.8040798723328,0.0630253574643905,359.46342502486,135.1196055016708,0.001395,0.001394,0.012351,-0.381712,-0.004538,0.001279,-0.924269,0.001395,0.001394,0.012351,12.900632,0.0,0.0,0.0010146,0.0,0.0,-0.0003208,0.0,0.0,0.0,-4.031530336121676
2023-09-08 15:13:47.945,-0.0108857089536,0.0071283334144,-0.0075776256127999,0.080676333824,0.0806807504896,0.0650859170048,48.359256,-4.557293,48.3003268366464,50.7872111244672,0.5524178011263999,0.551601842752,0.5433034673920001,-0.0763873892992,-0.006333121216,-9.7995777424128,-0.0053633742592,-0.0018215004288,0.0033886248064,34.3211221244032,-0.077181256448,-0.0053608716544,-9.7996316194816,-0.0053906243072,-0.0017252505728,0.0034491249792,-0.326548,-0.347958,0.82444,-0.086121,0.00071,-9.803038,0.053643197587514,359.46227911220325,135.1226135223947,0.0013962499968,0.0013958749952,0.0123503750016,-0.3816882500608,-0.004516125056,0.0013583747968,-0.9242789999744,0.0013962499968,0.0013958749952,0.0123503750016,12.900632,0.0,0.0,0.00100247503104,0.0,0.0,-0.00036504988672,0.0,0.0,0.0,-4.028522315397794
2023-09-08 15:13:47.960,-0.0107403333333333,0.0071093333333333,-0.007434,0.0805613333333333,0.080566,0.0650066666666666,48.359256,-4.557293,48.29955033333333,50.787336,0.5502006666666667,0.5493943333333333,0.5411803333333334,-0.073036,-0.00722,-9.801356,-0.005537,-0.001721,0.003434,34.321262,-0.07567,-0.006145,-9.800925,-0.005553,-0.001591,0.003454,-0.3257957467904,-0.3475964984576,0.8233629954048,-0.0871983795968,-0.0012852585130666,-9.803275876014936,0.0480138632319629,359.4615915599156,135.1244183471499,0.001397,0.001397,0.01235,-0.381674,-0.004503,0.001406,-0.924285,0.001397,0.001397,0.01235,12.900632,0.0,0.0,0.0009952,0.0,0.0,-0.0003916,0.0,0.0,0.0,-4.026717490642568
2023-09-08 15:13:48.040,-0.009965,0.007008,-0.006668,0.079948,0.079954,0.064584,48.359256,-4.557293,48.295409,50.788002,0.538376,0.537621,0.529857,-0.080198,-0.0103473333333333,-9.801974,-0.0054983333333333,-0.0008243333333333,0.003422,34.321672,-0.082456,-0.0100083333333333,-9.802487666666666,-0.0054796666666666,-0.0008143333333333,0.003386,-0.3217837467904,-0.3456684984576,0.8176189954048,-0.0929443795968,-0.0119265918464,-9.8045445426816,0.0171505366675825,359.46162975710195,135.13389124936273,0.001395,0.001395,0.0123466666666666,-0.3816,-0.004404,0.001663,-0.924316,0.001392,0.001391,0.012347,12.900632,0.0,0.0,0.0009564,0.0,0.0,-0.0005332,0.0,0.0,0.0,-4.017244588429747
2023-09-08 15:13:48.065,-0.0096737507456,0.0071398746624,-0.0067354998272,0.0802779991552,0.0802839991552,0.0647614995456,48.359256,-4.557293,48.2956064994944,50.788002,0.5392341228032,0.5384753728128,0.530572623168,-0.0824361192704,-0.0113246224981333,-9.8021671245056,-0.0054862500309333,-0.0005441257173333,0.0034182500096,34.321800124672,-0.0845766195712,-0.0112156219093333,-9.802975998749869,-0.0054567500586666,-0.0005716256213333,0.0033647500544,-0.32053,-0.345066,0.815824,-0.09474,-0.015252,-9.804941,0.0075057718068749,359.4616416936921,135.13685152372594,0.0013943750016,0.0013943750016,0.0123456250026666,-0.3815756250624,-0.0043690000896,0.0017354998144,-0.9243259999744,0.0013932499968,0.0013928749952,0.0123457500032,12.900632,0.0,0.0,0.00094427503104,0.0,0.0,-0.00057744988672,0.0,0.0,0.0,-4.014284314066543
