timestamp,north_vel,east_vel,down_vel,north_vel_dev,east_vel_dev,down_vel_dev,lat,long,alt,undulation,lat_dev,long_dev,alt_dev,accel_x,accel_y,accel_z,gyro_x,gyro_y,gyro_z,temp,delta_vel_x,delta_vel_y,delta_vel_z,delta_angle_x,delta_angle_y,delta_angle_z,mag_x,mag_y,mag_z,accel_x.1,accel_y.1,accel_z.1,roll,pitch,yaw,roll_dev,pitch_dev,yaw_dev,w_quat,x_quat,y_quat,z_quat,roll_dev.1,pitch_dev.1,yaw_dev.1,heave_period,surge_motion,sway_motion,heave_motion,surge_accel,sway_accel,heave_accel,surge_vel,sway_vel,heave_vel,wave_angle
2023-09-08 15:55:10.520,0.325943,-0.270904,0.050243,0.097254,0.097319,0.074244,48.359249,-4.557268,50.146854,50.787003,0.602963,0.602053,0.581239,-0.04812,-0.037026,-9.517089,-0.043576,-0.092581,0.065795,33.260864,-0.049374,-0.037264,-9.51679,-0.043192,-0.092715,0.065871,-0.450044,-0.134564,0.817802,-0.05171,-0.045231,-9.516127,359.7436586824585,358.9117239639285,165.11142506247083,0.00144,0.001445,0.012123,0.129577,0.009127,-0.003448,0.991521,0.00144,0.001445,0.012123,2.454913,0.0,0.0,-0.047111,0.0,0.0,0.06503,0.0,0.0,0.0,25.96028922467835
2023-09-08 15:55:10.545,0.3235686310784,-0.2678558828032,0.0586436034944,0.0975796241664,0.0976446241664,0.0744021245952,48.359249,-4.557268,50.1453733787904,50.787003,0.6042904966016001,0.6033754966143999,0.5822227474816,-0.05422935936,-0.0389241201408,-9.5115096392832,-0.0412153810432,-0.0931884984448,0.064979377088,33.2604446260736,-0.0549533607168,-0.039304619776,-9.5109037650688,-0.0409463807488,-0.0932968735104,0.0648341276544,-0.450044,-0.134564,0.817802,-0.05171,-0.045231,-9.516127,359.68367731683344,358.7793710520776,165.20359941179555,0.0014418749952,0.0014468749952,0.0121267499903999,0.128786377024,0.010208247232,-0.0041079983104,0.9916103747712,0.0014418749952,0.0014468749952,0.0121267499903999,2.454913,0.0,0.0,-0.04493800556288,0.0,0.0,0.0728187300608,0.0,0.0,0.0,26.05246357400307
2023-09-08 15:55:10.560,0.322144,-0.266027,0.063684,0.097775,0.09784,0.074497,48.359249,-4.557268,50.144485,50.787003,0.605087,0.604169,0.582813,-0.057895,-0.040063,-9.508162,-0.039799,-0.093553,0.06449,33.260193,-0.058301,-0.040529,-9.507372,-0.039599,-0.093646,0.064212,-0.448729619392,-0.1334716203392,0.8207210124544,-0.0523366276736,-0.0381307197056,-9.5165102516352,359.64768825177407,358.6999587628481,165.2589043989375,0.001443,0.001448,0.012129,0.128312,0.010857,-0.004504,0.991664,0.001443,0.001448,0.012129,2.454913,0.0,0.0,-0.0436342,0.0,0.0,0.077492,0.0,0.0,0.0,26.107768561145008
2023-09-08 15:55:10.585,0.3190577579008,-0.2624782590848,0.0716627295744,0.0981006241664,0.0981656241664,0.0746538745983999,48.3592496249984,-4.557268,50.1427087545472,50.787003,0.6064288715648001,0.605506496576,0.5838029974656,-0.0594162461056,-0.0364230093184,-9.5101407449344,-0.0377852551552,-0.0927148771456,0.0637868768,33.2602404998784,-0.0601684952192,-0.034582140224,-9.5107369913856,-0.0376183800704,-0.0925766277376,0.0636645014016,-0.446539,-0.131651,0.825586,-0.053381,-0.026297,-9.517149,359.5918966293001,358.5702199642454,165.34792748845626,0.0014448749952,0.0014498749952,0.0121283750016,0.1275488769536,0.0119213722752,-0.0051221234176,0.9917464997888,0.0014448749952,0.0014498749952,0.0121283750016,2.454913,0.0,0.0,-0.04146120556288,0.0,0.0,0.0852807300608,0.0,0.0,0.0,26.196791650663783
2023-09-08 15:55:10.600,0.317206,-0.260349,0.07645,0.098296,0.098361,0.074748,48.35925,-4.557268,50.141643,50.787003,0.607234,0.606309,0.584397,-0.060329,-0.034239,-9.511328,-0.036577,-0.092212,0.063365,33.260269,-0.061289,-0.031014,-9.512756,-0.03643,-0.091935,0.063336,-0.4466016252672,-0.1316404999552,0.8240781185664,-0.0472515988479999,-0.0304418926848,-9.4974025407488,359.55842142729267,358.49237615367224,165.40134170680705,0.001446,0.001451,0.012128,0.127091,0.01256,-0.005493,0.991796,0.001446,0.001451,0.012128,2.454913,0.0,0.0,-0.0401574,0.0,0.0,0.089954,0.0,0.0,0.0,26.250205869014565
2023-09-08 15:55:10.620,0.3131885,-0.25661,0.0818805,0.097385,0.0974475,0.074353,48.35925,-4.557268,50.1437475,50.787003,0.606121,0.605198,0.5840345,-0.0521195,-0.032195,-9.5074015,-0.034961,-0.0907185,0.0627665,33.260267,-0.0528905,-0.0306975,-9.5088825,-0.0348119999999999,-0.0904465,0.062652,-0.4466851252672,-0.1316264999551999,0.8220676185664,-0.0390790988479999,-0.0359683926848,-9.4710740407488,359.5172257618228,358.3917074690678,165.47121390992322,0.0014405,0.0014455,0.0121275,0.1264935,0.0133895,-0.0059524999999999,0.9918585,0.0014405,0.0014455,0.0121275,2.454913,0.0,0.0,-0.038419,0.0,0.0,0.096185,0.0,0.0,0.0,26.32007807213074
2023-09-08 15:55:10.625,0.3121841378559999,-0.2556752619648,0.0832381076224,0.0971572529152,0.0972191279232,0.074254251264,48.35925,-4.557268,50.1442736182656,50.787003,0.6058427535616,0.6049202535552001,0.58394387616,-0.0500671512704,-0.0316840065408,-9.5064198875648,-0.0345570051712,-0.0903451297792,0.0626168769152,33.260266500006395,-0.0507909018751999,-0.0306183760128,-9.5079141373952,-0.0344075051776,-0.0900743797632,0.0624810021888,-0.446706,-0.131623,0.821565,-0.037036,-0.03735,-9.464492,359.5069269772814,358.36654062005647,165.48868173711122,0.0014391250176,0.0014441250176,0.0121273750016,0.126344126912,0.0135968723456,-0.0060673735296,0.9918741248,0.0014391250176,0.0014441250176,0.0121273750016,2.45504642329216,0.0,0.0,-0.03778204565312,0.0,0.0,0.09693164044288,0.0,0.0,0.0,26.33754589931874
2023-09-08 15:55:10.640,0.309171,-0.252871,0.087311,0.096474,0.096534,0.073958,48.35925,-4.557268,50.145852,50.787003,0.605008,0.604087,0.583672,-0.04391,-0.030151,-9.503475,-0.033345,-0.089225,0.062168,33.260265,-0.044492,-0.030381,-9.505009,-0.033194,-0.088958,0.061968,-0.4417424788224,-0.1353722659968,0.8256705175168,-0.0392518844544,-0.0220746848256,-9.4993450237056,359.4760300963529,358.2910387844633,165.54108611303943,0.001435,0.00144,0.012127,0.125896,0.014219,-0.006412,0.991921,0.001435,0.00144,0.012127,2.4554467,0.0,0.0,-0.03587115,0.0,0.0,0.0991716,0.0,0.0,0.0,26.389950275246942
2023-09-08 15:55:10.665,0.304236637632,-0.248299136704,0.0946134813056,0.0967977491712,0.0968577491711999,0.0741161245951999,48.35925,-4.557268,50.1435882557952,50.787003,0.6063229966336,0.6053969966464,0.5846526224896,-0.0466687429376,-0.0260797604223999,-9.5113856047488,-0.0312487553664,-0.0859837582976,0.0607605036032,33.2595881267328,-0.0464776199168,-0.0258910114944,-9.509880862528,-0.0306046316288,-0.0855973836032,0.0606605033472,-0.43347,-0.141621,0.832513,-0.042945,0.003384,-9.557433,359.43033682916627,358.17347530783815,165.62620593757126,0.0014368749952,0.0014418749952,0.0121263750016,0.125167876864,0.0151914975104,-0.0069251236864,0.9919947498112,0.0014368749952,0.0014418749952,0.0121263750016,2.45611382329216,0.0,0.0,-0.03268634565312,0.0,0.0,0.10290484044288,0.0,0.0,0.0,26.475070099778776
2023-09-08 15:55:10.680,0.301276,-0.245556,0.098995,0.096992,0.097052,0.074211,48.35925,-4.557268,50.14223,50.787003,0.607112,0.606183,0.585241,-0.048324,-0.023637,-9.516132,-0.029991,-0.084039,0.059916,33.259182,-0.047669,-0.023197,-9.512804,-0.029051,-0.083581,0.059876,-0.436051886016,-0.1391452394368,0.8281993565951999,-0.0345539641984,0.0065085133312,-9.5298227571968,359.4029206816942,358.10293674032187,165.67727818094204,0.001438,0.001443,0.012126,0.124731,0.015775,-0.007233,0.992039,0.001438,0.001443,0.012126,2.4565141,0.0,0.0,-0.03077545,0.0,0.0,0.1051448,0.0,0.0,0.0,26.52614234314956
2023-09-08 15:55:10.705,0.2940449247616,-0.2396858587775999,0.1041962366848,0.0969604375808,0.0970198125824,0.0742095937536,48.35925,-4.5572681562496,50.1409240658432,50.787003,0.6077766857983999,0.6068447170560001,0.58587771712,-0.0395377724928,-0.0228945019007999,-9.509300767488,-0.0290435024256,-0.0787433885567999,0.0590141273088,33.2586338764032,-0.0390152721536,-0.0239307481216,-9.5104708809728,-0.0289122503552,-0.0780847640704,0.0588816275455999,-0.440355,-0.135019,0.82101,-0.020569,0.011716,-9.483806,359.35737065358967,357.99804992246163,165.75896026750368,0.0014398749952,0.0014448749952,0.0121253750016,0.1240335017856,0.0166393727872,-0.0077292487295999,0.9921083748224,0.0014398749952,0.0014448749952,0.0121253750016,2.45718122329216,0.0,0.0,-0.02759064565312,0.0,0.0,0.10887804044288,0.0,0.0,0.0,26.6078244297112
2023-09-08 15:55:10.720,0.28970625,-0.23616375,0.107317,0.0969415,0.0970005,0.07420875,48.35925,-4.55726825,50.1401405,50.787003,0.6081755,0.60724175,0.58625975,-0.034266,-0.022449,-9.505202,-0.028475,-0.075566,0.058473,33.258305,-0.033823,-0.024371,-9.509071,-0.028829,-0.074787,0.058285,-0.4385696173824,-0.1348076865984,0.8208589681056,0.0023146288863999,0.0175661187104,-9.4903055277312,359.33004045015355,357.935117402128,165.80796985401136,0.001441,0.001446,0.012125,0.123615,0.017158,-0.008027,0.99215,0.001441,0.001446,0.012125,2.4575815,0.0,0.0,-0.02567975,0.0,0.0,0.111118,0.0,0.0,0.0,26.65683401621888
2023-09-08 15:55:10.840,0.254997,-0.207987,0.132283,0.09679,0.096846,0.074202,48.35925,-4.557269,50.133872,50.787003,0.611366,0.610418,0.589316,0.155964,0.0019649999999999,-9.545467250000002,-0.0185495,-0.0375597499999999,0.04770825,33.25915175,0.157076,-0.00370475,-9.536551,-0.01790075,-0.0361275,0.0471752499999999,-0.4242866173824,-0.1331171865984,0.8196507181056,0.1853828788863999,0.0643668687104,-9.5423015277312,359.1402195326267,357.58916548542805,166.17059484254966,0.001437,0.001441,0.012129,0.120518,0.01998,-0.009979,0.99246,0.001437,0.001441,0.012129,2.4607837,0.0,0.0,-0.01039265,0.0,0.0,0.1290376,0.0,0.0,0.0,27.01945900475718
2023-09-08 15:55:10.865,0.2408989110911999,-0.2003132696448,0.1365054891904,0.0971143741696,0.0971703741695999,0.0743594995968,48.35925,-4.557269,50.1308288827904,50.787003,0.6126966215935999,0.6117436216064,0.5903072474624,0.195595148544,0.0070512369791999,-9.5538558222752,-0.0164816927936,-0.0296418015199999,0.0454655994912,33.2593281557984,0.1968465231871999,0.0006007077279999,-9.542275985344,-0.0156240370784,-0.0280734581183999,0.0448607246752,-0.421311,-0.132765,0.819399,0.223522,0.074117,-9.553134,359.11579726913044,357.5581542241556,166.22975258345272,0.0014388749952,0.0014428749952,0.0121283750016,0.120011751296,0.0202287493632,-0.0102127494016,0.9925137498624,0.0014388749952,0.0014428749952,0.0121283750016,2.46145082329216,0.0,0.0,-0.00720784565312,0.0,0.0,0.13277084044288,0.0,0.0,0.0,27.07861674566024
2023-09-08 15:55:10.880,0.23244,-0.195709,0.139039,0.097309,0.097365,0.074454,48.35925,-4.557269,50.129003,50.787003,0.613495,0.612539,0.590902,0.219374,0.010103,-9.558889,-0.015241,-0.024891,0.04412,33.259434,0.220709,0.003184,-9.545711,-0.014258,-0.023241,0.043472,-0.4164389792128,-0.1283294810752,0.8220255112064,0.317298650112,0.0354303349376,-9.5715132034176,359.1011438109988,357.5395473403697,166.2652474703053,0.00144,0.001444,0.012128,0.119708,0.020378,-0.010353,0.992546,0.00144,0.001444,0.012128,2.4618511,0.0,0.0,-0.00529695,0.0,0.0,0.1350108,0.0,0.0,0.0,27.114111632512817
2023-09-08 15:55:10.905,0.2141637967872,-0.1868833975936,0.1410089949568,0.097633999168,0.0976903116671999,0.0746108745984,48.35925,-4.557269,50.1258789454976,50.787003,0.6148462465408,0.6138855590528,0.5919038724352,0.2347902105344,0.0035317668224,-9.595192032064,-0.0139885032064,-0.0147297760127999,0.0392525124608,33.259362125184,0.2513082966656,0.0129389750272,-9.6074008420736,-0.0140286255872,-0.0133147754112,0.0386432623616,-0.408319,-0.120937,0.826403,0.473592,-0.029047,-9.602145,359.0776884113066,357.5311320442969,166.31430685592102,0.0014418749952,0.0014458749951999,0.0121273750016,0.1192873760768,0.0204304998656,-0.01055612448,0.9925934998784,0.0014418749952,0.0014458749951999,0.0121273750016,2.46251822329216,0.0,0.0,-0.0021121456531199,0.0,0.0,0.13874404044288,0.0,0.0,0.0,27.163171018128537
2023-09-08 15:55:10.920,0.203198,-0.181588,0.142191,0.097829,0.0978854999999999,0.074705,48.35925,-4.557269,50.1240045,50.787003,0.615657,0.6146935,0.5925050000000001,0.24404,-0.000411,-9.616974,-0.013237,-0.008633,0.036332,33.259319,0.269668,0.018792,-9.644415,-0.013891,-0.007359,0.035746,-0.41147838848,-0.1231058217536,0.8221240442432,0.4186443280576,-0.0173585751296,-9.6433766134208,359.0636150754177,357.52608283218416,166.34374268823822,0.001443,0.001447,0.012127,0.119035,0.020462,-0.010678,0.992622,0.001443,0.001447,0.012127,2.4629185,0.0,0.0,-0.00020125,0.0,0.0,0.140984,0.0,0.0,0.0,27.192606850445745
2023-09-08 15:55:10.960,0.173956,-0.167467,0.145343,0.098349,0.098406,0.074956,48.35925,-4.557269,50.119006,50.787003,0.617819,0.616848,0.594108,0.2794255,0.0002224999999999,-9.648302,-0.0019129999999999,0.009254,0.0229105,33.259091999999995,0.283156,0.0061955,-9.6627805,-0.0013059999999999,0.0107545,0.022179,-0.41990338848,-0.1288893217536,0.8107135442432,0.2721178280576,0.0138104248704,-9.7533271134208,359.0729542874783,357.5738961601878,166.37640128256066,0.0014455,0.0014494999999999,0.0121305,0.118606,0.020228,-0.010678,0.992678,0.001446,0.001449,0.012134,2.4639859,0.0,0.0,0.00489445,0.0,0.0,0.1469572,0.0,0.0,0.0,27.225265444768183
2023-09-08 15:55:10.985,0.158212290304,-0.1576776500608,0.1451280005503999,0.0986758741632,0.0987334991616,0.0751122496,48.3592506249984,-4.557269,50.1158353831168,50.787003,0.6191902464896,0.6182148715008,0.595120497408,0.3015413808832,0.0006184364863999,-9.6678819498752,0.0051644818816,0.0204333463808,0.0145220839743999,33.2589501253632,0.2915859784192,-0.0016772923456,-9.6742589081152,0.006559604864,0.0220754085184,0.0136996467072,-0.425169,-0.132504,0.803582,0.180539,0.033291,-9.822046,359.07879128007346,357.6037794136888,166.39681285175843,0.001447062496,0.001451062496,0.0121326874944,0.118515375232,0.0198723759104,-0.0105080004352,0.9926979999488,0.0014472499968,0.0014508749951999,0.012134,2.46465302329216,0.0,0.0,0.0080792543468799,0.0,0.0,0.15069044044288,0.0,0.0,0.0,27.245677013965945
2023-09-08 15:55:11.000,0.148766,-0.151804,0.144999,0.098872,0.09893,0.075206,48.359251,-4.557269,50.113933,50.787003,0.620013,0.619035,0.595728,0.314811,0.000856,-9.67963,0.009411,0.027141,0.009489,33.258865,0.296644,-0.006401,-9.681146,0.011279,0.028868,0.008612,-0.4272247587712,-0.1347862597376,0.8113167830016,0.1803657492607999,0.0585709828608,-9.8073958124928,359.08229349953893,357.62170948819147,166.40905987688313,0.001448,0.001452,0.012134,0.118461,0.019659,-0.010406,0.99271,0.001448,0.001452,0.012134,2.4650533,0.0,0.0,0.00999015,0.0,0.0,0.1529304,0.0,0.0,0.0,27.257924039090653
2023-09-08 15:55:11.020,0.138964,-0.1448495,0.1411675,0.097855,0.0979115,0.074761,48.359251,-4.557269,50.1181655,50.787003,0.6186105,0.6176345,0.595218,0.251709,0.0169555,-9.7224565,0.012251,0.0335705,0.0053095,33.258398,0.24297,0.0078909999999999,-9.726648,0.0135315,0.0345895,0.0046654999999999,-0.4299657587712,-0.1378292597376,0.8216297830016001,0.1801347492607999,0.0922774828608,-9.7878623124928,359.0994822333929,357.6692936330771,166.4077707218441,0.0014425,0.0014464999999999,0.0121335,0.1184669999999999,0.0192645,-0.0102085,0.992719,0.0014425,0.0014464999999999,0.0121335,2.465587,0.0,0.0,0.012538,0.0,0.0,0.155917,0.0,0.0,0.0,27.256634884051607
2023-09-08 15:55:11.025,0.1365135313664,-0.1431108972544,0.1402096372608,0.0976007532544,0.0976568782592,0.0746497514239999,48.359251,-4.557269,50.119223611456,50.787003,0.618259879488,0.6172843794816,0.5950905016320001,0.2359337019264,0.0209803234815999,-9.7331629879552,0.012960990912,0.0351778544256,0.0042646383744,33.2582812514944,0.2295516717568,0.0114639542655999,-9.7380233543936,0.014094617792,0.0360198566912,0.0036788876287999,-0.430651,-0.13859,0.824208,0.180077,0.100704,-9.782979,359.1037793618524,357.6811895170292,166.4074484372096,0.0014411250176,0.0014451250176,0.0121333750016,0.1184684999808,0.0191658762624,-0.010159125632,0.9927212499712,0.0014411250176,0.0014451250176,0.0121333750016,2.465587,0.0,0.0,0.01317391686016,0.0,0.0,0.1549098878912,0.0,0.0,0.0,27.25631259941713
2023-09-08 15:55:11.040,0.129162,-0.137895,0.137336,0.096838,0.096893,0.074316,48.359251,-4.557269,50.122398,50.787003,0.617208,0.616234,0.594708,0.188607,0.033055,-9.765283,0.015091,0.04,0.00113,33.257931,0.189296,0.022183,-9.77215,0.015784,0.040311,0.000719,-0.4319762556544,-0.1361794897152,0.8213017376,0.1606879172736,0.0935212193536,-9.82881357056,359.1166709672468,357.7168777779627,166.40648156680504,0.001437,0.001441,0.012133,0.118473,0.01887,-0.010011,0.992728,0.001437,0.001441,0.012133,2.465587,0.0,0.0,0.0150817,0.0,0.0,0.1518885,0.0,0.0,0.0,27.25534572901256
2023-09-08 15:55:11.065,0.1182389029632,-0.1283056495488,0.1329760111616,0.0971642491648,0.0972217491584,0.0744728745983999,48.359251,-4.557269,50.119344882816,50.787003,0.6185467465728,0.6175683715839999,0.5957073724416,0.153760214208,0.0294068843392,-9.7978097917312,0.0167697457024,0.0457918601728,-0.0030056144128,33.2582047492992,0.1530142178816,0.0261723647872,-9.8002024281856,0.017277746176,0.0466097338752,-0.0034491143296,-0.434185,-0.132162,0.816458,0.128373,0.08155,-9.905204,359.141701996842,357.7902161879926,166.39419881551584,0.0014388749952,0.0014422499968,0.012133,0.1185723747455999,0.0182593765632,-0.0097197507456,0.9927298749952,0.0014388749952,0.0014422499968,0.012133,2.465587,0.0,0.0,0.01826131686016,0.0,0.0,0.1468528878912,0.0,0.0,0.0,27.243062977723355
2023-09-08 15:55:11.080,0.111685,-0.122552,0.13036,0.09736,0.097419,0.074567,48.359251,-4.557269,50.117513,50.787003,0.61935,0.618369,0.596307,0.132852,0.027218,-9.817326,0.017777,0.049267,-0.005487,33.258369,0.131245,0.028566,-9.817034,0.018174,0.050389,-0.00595,-0.4333116212736,-0.1333275049728,0.8088109673728,0.1505584696576,0.0652959306496,-9.9004486047104,359.15672071712646,357.83421953440546,166.38682911443203,0.00144,0.001443,0.012133,0.118632,0.017893,-0.009545,0.992731,0.00144,0.001443,0.012133,2.465587,0.0,0.0,0.0201691,0.0,0.0,0.1438315,0.0,0.0,0.0,27.23569327663955
2023-09-08 15:55:11.105,0.099782947136,-0.1144670206976,0.1247314727424,0.0976906241536,0.0977517074816,0.0747232496,48.359251,-4.5572692083328,50.114756757056,50.787003,0.6207162465024,0.6197304548479999,0.5973199140736,0.1560775655424,0.018039898496,-9.8572640227584,0.0194794956416,0.0546269862784,-0.0088188664703999,33.2574608773248,0.1577293072,0.0185385256704,-9.8706294877952,0.01951774656,0.0552489875584,-0.0091981166848,-0.431856,-0.13527,0.796066,0.187534,0.038206,-9.892523,359.18511786515074,357.91862316352683,166.36752764812044,0.0014418749952,0.0014448749952,0.012133,0.118791374592,0.0171898768,-0.0092150008448,0.9927272500096,0.0014418749952,0.0014448749952,0.012133,2.465587,0.0,0.0,0.02334871686016,0.0,0.0,0.1387958878912,0.0,0.0,0.0,27.216391810327963
2023-09-08 15:55:11.120,0.0926416666666666,-0.1096159999999999,0.1213543333333333,0.097889,0.0979513333333333,0.074817,48.359251,-4.557269333333333,50.113103,50.787003,0.621536,0.6205473333333333,0.5979276666666666,0.170013,0.012533,-9.881227,0.020501,0.057843,-0.010818,33.256916,0.17362,0.012522,-9.902787,0.020324,0.058165,-0.011147,-0.4336948828458666,-0.1344274964053333,0.7997566407466667,0.2078164615381333,0.0208736760490666,-9.9049816781568,359.20215627028034,357.96926568671785,166.35594668927448,0.001443,0.001446,0.012133,0.118887,0.016768,-0.009017,0.992725,0.001443,0.001446,0.012133,2.465587,0.0,0.0,0.0252565,0.0,0.0,0.1357745,0.0,0.0,0.0,27.204810851481994
2023-09-08 15:55:11.200,0.054555,-0.083744,0.103343,0.098947,0.099016,0.075317,48.359251,-4.55727,50.104283,50.787003,0.625908,0.624904,0.601169,0.2772383333333333,0.0065916666666666,-9.976679,0.0257876666666666,0.0663563333333333,-0.0225446666666666,33.256082,0.281954,0.0033946666666666,-10.009327,0.0256873333333333,0.0665616666666666,-0.0229983333333333,-0.4435022161792,-0.129934163072,0.81943997408,0.3159891282048,-0.0715649906176,-9.9714276781568,359.3183139139465,358.2831319668905,166.2448692713918,0.001439,0.001442,0.0121363333333333,0.1198223333333333,0.014162,-0.0076983333333333,0.9926623333333332,0.001439,0.001442,0.0121363333333333,2.465587,0.0,0.0,0.0354313,0.0,0.0,0.1196605,0.0,0.0,0.0,27.09373343359931
2023-09-08 15:55:11.220,0.045235,-0.0774755,0.095673,0.0979575,0.098026,0.074881,48.359251,-4.55727,50.109276,50.787003,0.6245205,0.6235195,0.6006695,0.3040446666666666,0.0051063333333333,-10.000542,0.0271093333333333,0.0684846666666666,-0.0254763333333333,33.2558735,0.3090374999999999,0.0011128333333333,-10.035962,0.0270281666666666,0.0686608333333333,-0.0259611666666666,-0.4459540495125333,-0.1288108297386666,0.8243608074133333,0.3430322948714667,-0.0946746572842666,-9.9880391781568,359.3473533248631,358.3615985369337,166.21709991692111,0.001438,0.001441,0.0121371666666666,0.1200561666666666,0.0135105,-0.0073686666666666,0.9926466666666668,0.001438,0.001441,0.0121371666666666,2.465587,0.0,0.0,0.037975,0.0,0.0,0.115632,0.0,0.0,0.0,27.065964079128637
2023-09-08 15:55:11.225,0.042905029824,-0.0759083950592,0.093755524544,0.0977101281664,0.097778503168,0.0747720013952,48.359251,-4.55727,50.1105242340224,50.787003,0.62417362944,0.6231733794304,0.6005446265984,0.3107461642197333,0.0047350047530666,-10.0065076736384,0.0274397457706666,0.0690167431893333,-0.0262092406186666,33.2558213756672,0.3158082883328,0.0005423823018666,-10.042620664768,0.0273633707093333,0.0691856182826666,-0.0267018655189333,-0.446567,-0.12853,0.825591,0.349793,-0.100452,-9.992192,359.3546130846661,358.3812149283514,166.21015766716536,0.0014377500032,0.0014407500032,0.0121373749973333,0.1201146242517333,0.0133476270848,-0.0072862510549333,0.9926427500501334,0.0014377500032,0.0014407500032,0.0121373749973333,2.4663756899046403,0.0,0.0,0.03844664396288,0.0,0.0,0.11412161933312,0.0,0.0,0.0,27.05902182937288
2023-09-08 15:55:11.240,0.035915,-0.071207,0.088003,0.096968,0.097036,0.074445,48.359251,-4.55727,50.114269,50.787003,0.623133,0.622135,0.60017,0.330851,0.003621,-10.024405,0.028431,0.070613,-0.028408,33.255665,0.336121,-0.001169,-10.062597,0.028369,0.07076,-0.028924,-0.4445787415168,-0.126234990208,0.81634721056,0.38639315616,-0.062430587776,-9.9952703881344,359.37639273577963,358.4400651069768,166.18933056245044,0.001437,0.00144,0.012138,0.12029,0.012859,-0.007039,0.992631,0.001437,0.00144,0.012138,2.4687418,0.0,0.0,0.0398616,0.0,0.0,0.1095904,0.0,0.0,0.0,27.03819472465796
2023-09-08 15:55:11.265,0.0208894134656,-0.0637488940928,0.0822636396928,0.0973017491456,0.0973716241408,0.0746018745984,48.359251,-4.55727,50.1121990052992,50.787003,0.6244811215488,0.6234781215616,0.6011768724224,0.3703152739712,0.0122047280256,-10.0457780702848,0.0313259925888,0.0723054956672,-0.0333242374144,33.254971251776006,0.3787746408064,0.0043709858176,-10.0231746009216,0.0316296166528,0.0725206204928,-0.0340089869824,-0.441265,-0.12241,0.800941,0.447393,0.000938,-10.000401,359.4245210673617,358.5462410765759,166.13332408135338,0.0014382499968,0.0014418749952,0.012138,0.1207668737791999,0.011987127232,-0.0065158763392,0.992587250112,0.0014382499968,0.0014418749952,0.012138,2.47268528990464,0.0,0.0,0.04221984396288,0.0,0.0,0.10203841933312,0.0,0.0,0.0,26.9821882435609
2023-09-08 15:55:11.280,0.011874,-0.059274,0.07882,0.097502,0.097573,0.074696,48.359251,-4.55727,50.110957,50.787003,0.62529,0.624284,0.601781,0.393994,0.017355,-10.058602,0.033063,0.073321,-0.036274,33.254555,0.404367,0.007695,-9.999521,0.033586,0.073577,-0.03706,-0.4446921396224,-0.1269422693376,0.8042455140992,0.46617120512,0.0191803278336,-10.0523623467008,359.4533982634452,358.6099470932332,166.099719963292,0.001439,0.001443,0.012138,0.121053,0.011464,-0.006202,0.992561,0.001439,0.001443,0.012138,2.4750514000000003,0.0,0.0,0.0436348,0.0,0.0,0.0975072,0.0,0.0,0.0,26.948584125499508
2023-09-08 15:55:11.305,-0.0045622079231999,-0.05178964416,0.0706100210176,0.0978369991424,0.0979111241344,0.0748528745984,48.359251,-4.55727,50.1091763795584,50.787003,0.6266518715136,0.6256414965248,0.6027953724032,0.453578222464,0.0158868787584,-10.074170710144,0.0351329947008,0.0748753710208,-0.0428014832896,33.2546499997568,0.4564481166719999,0.0159624788351999,-10.0728558122624,0.0357222445312,0.0749944963712,-0.04360685824,-0.450404,-0.134496,0.809753,0.497468,0.049584,-10.138964,359.5066115824415,358.7192743226381,166.02921052513332,0.0014408749951999,0.0014448749952,0.012138,0.1216554984576,0.0105696272896,-0.0056320014592,0.9924997501568,0.0014408749951999,0.0014448749952,0.012138,2.4789948899046403,0.0,0.0,0.0459930439628799,0.0,0.0,0.08995521933312,0.0,0.0,0.0,26.87807468734084
2023-09-08 15:55:11.320,-0.014424,-0.047299,0.065684,0.098038,0.098114,0.074947,48.359251,-4.55727,50.108108,50.787003,0.627469,0.626456,0.603404,0.489329,0.015006,-10.083512,0.036375,0.075808,-0.046718,33.254707,0.487697,0.020923,-10.116857,0.037004,0.075845,-0.047535,-0.4434555953536,-0.1336169962496,0.8046237281152,0.4605142173312,0.021175753792,-10.1169986562816,359.5385397918016,358.7848711080866,165.9869045734307,0.001442,0.001446,0.012138,0.122017,0.010033,-0.00529,0.992463,0.001442,0.001446,0.012138,2.481361,0.0,0.0,0.047408,0.0,0.0,0.085424,0.0,0.0,0.0,26.835768735638226
2023-09-08 15:55:11.345,-0.028067715072,-0.0396671445376,0.0574240211456,0.0983742491392,0.0984539991296,0.0751026246016,48.359251,-4.55727,50.1066342537728,50.787003,0.62884399648,0.6278266214912,0.6044246223872001,0.4457028616832,0.0067628961024,-10.0938232236032,0.0392743675776,0.076217373952,-0.0532348583168,33.254688250048005,0.4405539956864,-0.0011731934335999,-10.1197401176192,0.0390096198656,0.0762249990272,-0.0539468585856,-0.431875,-0.132152,0.796075,0.398925,-0.026171,-10.08039,359.5964441907364,358.89509358175457,165.902751612703,0.0014438749952,0.0014478749952,0.0121423749888,0.122738873152,0.0091367522944,-0.004677501568,0.9923855001984,0.0014438749952,0.0014478749952,0.0121423749888,2.481834677358812,0.0,0.0,0.0465946449393371,0.0,0.0,0.07818426853376,0.0,0.0,0.0,26.751615774910533
2023-09-08 15:55:11.360,-0.036254,-0.035088,0.052468,0.098576,0.098658,0.075196,48.359251,-4.55727,50.10575,50.787003,0.629669,0.628649,0.605037,0.419527,0.001817,-10.10001,0.041014,0.076463,-0.057145,33.254677,0.412268,-0.014431,-10.12147,0.040213,0.076453,-0.057794,-0.4365602699904,-0.136618269056,0.7979717580928,0.4052959021823999,-0.0511277314816,-10.083573763584,359.6311870672743,358.9612275174278,165.85225949157498,0.001445,0.001449,0.012145,0.123172,0.008599,-0.00431,0.992339,0.001445,0.001449,0.012145,2.4821188857142857,0.0,0.0,0.0461066285714285,0.0,0.0,0.0738404,0.0,0.0,0.0,26.701123653782503
2023-09-08 15:55:11.385,-0.04609634980352,-0.02863339152384,0.04336889829376,0.09843450036224,0.09852137534976,0.07509937524736,48.359251,-4.55727,50.10411525418496,50.787003,0.62695225695488,0.6259455069209601,0.6025770062976,0.4218438690688,-0.0053886065536,-10.121741194368,0.041829622912,0.0759198763904,-0.062573111104,33.2539951267456,0.4186998585344,-0.0170172433792,-10.1367780858112,0.04158799648,0.0759430013056,-0.0631739862272,-0.444369,-0.144062,0.801133,0.415914,-0.092722,-10.08888,359.6921352967035,359.0703756979802,165.75467786690135,0.0014462499968,0.0014508749951999,0.0121456249984,0.1240113728512,0.0077171272576,-0.0036712516351999,0.9922433752448,0.0014462499968,0.0014508749951999,0.0121456249984,2.4825925630730974,0.0,0.0,0.0452932735107657,0.0,0.0,0.06660066853376,0.0,0.0,0.0,26.603542029108866
2023-09-08 15:55:11.400,-0.0520018,-0.0247606,0.0379094,0.0983496,0.0984394,0.0750414,48.359251,-4.55727,50.1031344,50.787003,0.6253222,0.6243234,0.601101,0.423234,-0.009712,-10.13478,0.042319,0.075594,-0.06583,33.253586,0.422559,-0.018569,-10.145963,0.042413,0.075637,-0.066402,-0.4453450354144,-0.1428407135392,0.7993283048,0.4090723770592,-0.0932152208544,-10.1030694042912,359.7287044840056,359.13586505338367,165.69612849240184,0.001447,0.001452,0.012146,0.124515,0.007188,-0.003288,0.992186,0.001447,0.001452,0.012146,2.482876771428572,0.0,0.0,0.0448052571428571,0.0,0.0,0.0622568,0.0,0.0,0.0,26.54499265460936
2023-09-08 15:55:11.545,-0.10908754980352,0.01267620847616,-0.01486550170624,0.09752890036224,0.09764697534976,0.07448097524736,48.359251,-4.55727,50.09365285418496,50.787003,0.6095650569548801,0.60864310692096,0.5868330062976,0.3588304659264,-0.0330171147136,-10.1836567596768,0.0382970642752,0.0590667260448,-0.0862151785024,33.25480943696,0.3603531212064,-0.0305595884576,-10.177378142384,0.0382424393407999,0.0587979761824,-0.0868306784832,-0.45478,-0.131035,0.781883,0.342937,-0.097983,-10.240233,33.816512059062575,359.6846527398019,165.01036456255744,0.0014415625024,0.0014465625024,0.0121523437472,0.1304355286368,0.002806283184,0.0002182797024,0.9914492190752,0.0014415625024,0.0014465625024,0.0121523437472,2.48562410593024,0.0,0.0,0.04008778779648,0.0,0.0,0.02026626853376,0.0,0.0,0.0,25.85922872476496
2023-09-08 15:55:11.560,-0.114993,0.016549,-0.020325,0.097444,0.097565,0.074423,48.359251,-4.55727,50.092672,50.787003,0.607935,0.607021,0.585357,0.352168,-0.035428,-10.188713,0.037881,0.057357,-0.088324,33.254936,0.353918,-0.0318,-10.180628,0.037811,0.057056,-0.088944,-0.452327489536,-0.1334882604672,0.7831797555328,0.3245236714368,-0.101294264128,-10.2256184376448,0.1012989381791295,359.74142414705744,164.93942313237255,0.001441,0.001446,0.012153,0.131048,0.002353,0.000581,0.991373,0.001441,0.001446,0.012153,2.4859083142857146,0.0,0.0,0.0395997714285714,0.0,0.0,0.0159223999999999,0.0,0.0,0.0,25.788287294580076
2023-09-08 15:55:11.585,-0.11609637217536,0.01916699329792,-0.0282038548300799,0.09731737532416,0.09744025031936,0.07437087513344,48.359251,-4.55727,50.09321287361536,50.787003,0.6083768738688,0.6074603738752,0.5858716236825601,0.349908630784,-0.03517800064,-10.1900048716928,0.0358872551039999,0.0544751323776,-0.0922164900352,33.254776625408,0.3447417734912,-0.0386268575232,-10.1846792396288,0.0359366297984,0.0540222577664,-0.092672115456,-0.44824,-0.137577,0.785341,0.293835,-0.106813,-10.201261,0.1502508944832903,359.81787800712283,164.80194942333694,0.0014422499968,0.0014478749952,0.0121523750016,0.1322373719552,0.0017492515456,0.0010897486976,0.9912155004032,0.0014422499968,0.0014478749952,0.0121523750016,2.486381991644526,0.0,0.0,0.0387864163679085,0.0,0.0,0.0086826685337599,0.0,0.0,0.0,25.65081358554445
2023-09-08 15:55:11.600,-0.1167584,0.0207378,-0.0329312,0.0972414,0.0973654,0.0743396,48.359251,-4.55727,50.0935374,50.787003,0.608642,0.607724,0.5861804,0.348553,-0.035028,-10.19078,0.034691,0.052746,-0.094552,33.254681,0.339236,-0.042723,-10.18711,0.034812,0.052202,-0.094909,-0.4484759697568,-0.1369906849984,0.7868765378015999,0.2498502185824,-0.1122901796192,-10.193691123952,0.1796222687735131,359.8637506363179,164.71946463482183,0.001443,0.001449,0.012152,0.132951,0.001387,0.001395,0.991121,0.001443,0.001449,0.012152,2.4866662,0.0,0.0,0.0382983999999999,0.0,0.0,0.0043387999999999,0.0,0.0,0.0,25.568328797029352
2023-09-08 15:55:11.745,-0.12315797217536,0.03592219329792,-0.07862865483008,0.09650697532416,0.09664185031936,0.07403727513344,48.359251,-4.55727,50.09667447361536,50.787003,0.6112048738688,0.6102723738752,0.5891652236825601,-0.0678578162047999,-0.0896830071264,-10.1529649229408,0.0213500996384,0.0347950079232,-0.096233093008,33.2542695626816,-0.0739993176064,-0.0782307655776,-10.1637523228096,0.021857161968,0.0343624766239999,-0.0960753432352,-0.450757,-0.131323,0.80172,-0.175334,-0.165236,-10.120516,0.3855020281308996,33.96168344544168,163.88431455928483,0.001433937504,0.001439937504,0.0121565312479999,0.14017834056,-0.00135440504,0.0035917490304,0.9901159691936,0.001433937504,0.001439937504,0.0121565312479999,2.4894135345016686,0.0,0.0,0.0335809306536228,0.0,0.0,-0.03765173146624,0.0,0.0,0.0,24.73317872149235
2023-09-08 15:55:11.760,-0.12382,0.037493,-0.083356,0.096431,0.096567,0.074006,48.359251,-4.55727,50.096999,50.787003,0.61147,0.610536,0.589474,-0.110935,-0.095337,-10.149053,0.01997,0.032938,-0.096407,33.254227,-0.116748,-0.081904,-10.161336,0.020517,0.032517,-0.096196,-0.4506928747264,-0.1313338750463999,0.8032278814336,-0.1207836422528,-0.1063588737919999,-10.1042300555136,0.4068000345428845,0.2475177674965156,163.79791931713342,0.001433,0.001439,0.012157,0.140926,-0.001638,0.003819,0.990012,0.001433,0.001439,0.012157,2.489697742857143,0.0,0.0,0.0330929142857142,0.0,0.0,-0.0419956,0.0,0.0,0.0,24.64678347934094
2023-09-08 15:55:11.785,-0.117928348416,0.0363444612736,-0.0876614056448,0.0958649597824,0.0959963764608,0.0737499589888,48.359251,-4.5572697916672,50.0942617153408,50.7872111244672,0.6110666676991999,0.6101320427008,0.5895154582272001,-0.0780907090816,-0.0835595301504,-10.1389830257792,0.0182056295168,0.0303967565056,-0.0940957559168,33.2543413747072,-0.078501222912,-0.0797658804736,-10.1427229226496,0.0188457542784,0.0299401315968,-0.0937578812416,-0.450586,-0.131352,0.805741,-0.029867,-0.008231,-10.077087,0.4303270537761205,0.2904894921234306,163.66416982423215,0.0014342499968,0.0014402499968,0.0121557500032,0.1420828720383999,-0.001975499136,0.0040777493375999,0.9898438754304,0.0014342499968,0.0014402499968,0.0121557500032,2.490171420215954,0.0,0.0,0.0322795592250514,0.0,0.0,-0.04923533146624,0.0,0.0,0.0,24.513033986439662
2023-09-08 15:55:11.800,-0.1143933333333333,0.0356553333333333,-0.0902446666666666,0.0955253333333333,0.095654,0.0735963333333333,48.359251,-4.5572696666666666,50.09261933333333,50.787336,0.6108246666666667,0.6098896666666667,0.5895403333333333,-0.058384,-0.076493,-10.132941,0.017147,0.028872,-0.092709,33.25441,-0.055553,-0.078483,-10.131555,0.017843,0.028394,-0.092295,-0.4496837461503999,-0.1321842535509333,0.8081840104234667,-0.042058302016,-0.0267883291776,-10.066412704456534,0.4444433616829796,0.3162727029122144,163.58391958065204,0.001435,0.001441,0.012155,0.142777,-0.002178,0.004233,0.989743,0.001435,0.001441,0.012155,2.4904556285714285,0.0,0.0,0.0317915428571428,0.0,0.0,-0.0535792,0.0,0.0,0.0,24.43278374285956
2023-09-08 15:55:11.880,-0.09554,0.03198,-0.104022,0.093714,0.093828,0.072777,48.359251,-4.557269,50.08386,50.788002,0.609534,0.608597,0.589673,-0.094102,-0.083755,-10.033067,0.020047,0.0325146666666666,-0.0849336666666666,33.253568,-0.096001,-0.0870936666666666,-10.024371666666667,0.0200176666666666,0.0326626666666666,-0.084555,-0.4448717461504,-0.1366229202176,0.8212133437568,-0.107078302016,-0.1257603291776,-10.0094833711232,0.5105053954615635,0.4651844338667154,163.17803627858137,0.001417,0.001423,0.01215,0.146288,-0.003364,0.005001,0.989224,0.001417,0.001423,0.01215,2.4919714,0.0,0.0,0.0291888,0.0,0.0,-0.0767464,0.0,0.0,0.0,24.026900440788893
2023-09-08 15:55:11.905,-0.0905137628672,0.02915188224,-0.108257926656,0.0940464991488,0.0941579991552,0.0729366870911999,48.359251,-4.557269,50.0867540550912,50.788002,0.6108014967552,0.6098604342656,0.590640185024,-0.1052638464256,-0.0860243691904,-10.0018564548992,0.02095324768,0.0336529970858666,-0.0825038812202666,33.2533048756736,-0.1086409676416,-0.0897844931114666,-9.990876960746666,0.0206972482602666,0.0339966215850666,-0.082136256192,-0.443368,-0.13801,0.825285,-0.127397,-0.156689,-9.991693,0.5383295871574909,0.5174308890589396,163.0605802312678,0.0014188749952,0.0014248749952,0.0121493750016,0.1473042473984,-0.0037739989504,0.0053122492032,0.9890696253952,0.0014188749952,0.0014248749952,0.0121493750016,2.4924450773588114,0.0,0.0,0.0283754449393371,0.0,0.0,-0.08398613146624,0.0,0.0,0.0,23.90944439347533
2023-09-08 15:55:11.920,-0.0874979999999999,0.027455,-0.1107995,0.094246,0.094356,0.0730325,48.359251,-4.557269,50.0884905,50.788002,0.6115619999999999,0.6106185,0.5912204999999999,-0.111961,-0.087386,-9.98313,0.021497,0.034336,-0.081046,33.253147,-0.116225,-0.091399,-9.97078,0.021105,0.034797,-0.080685,-0.446371762816,-0.1424635190015999,0.8103899364480001,-0.1224627289472,-0.1452379511423999,-10.0156983524224,0.5550242161432284,0.5487789761763024,162.99010612177847,0.00142,0.001426,0.012149,0.147914,-0.00402,0.005499,0.988977,0.00142,0.001426,0.012149,2.4927292857142858,0.0,0.0,0.0278874285714285,0.0,0.0,-0.08833,0.0,0.0,0.0,23.838970283985983
2023-09-08 15:55:11.945,-0.0824717628672,0.02462688224,-0.115035426656,0.0945784991488,0.0946859991552,0.0731921870912,48.359251,-4.557269,50.0913845550912,50.788002,0.6128294967551999,0.6118819342656,0.592187685024,-0.1086497584768,-0.0834335101184,-9.9661028560896,0.0232701204608,0.037971928192,-0.0787738183168,33.2532888746368,-0.1108615762304,-0.0829887090304,-9.9513100498432,0.0226809334656,0.038487615552,-0.0785103180672,-0.451378,-0.149886,0.785565,-0.114239,-0.126153,-10.055707,0.5872888193839372,0.6113744550495088,162.87991945788096,0.0014212499968,0.0014278749951999,0.012152124992,0.1488689975552,-0.0045124987392,0.0058621240704,0.9888288753792,0.0014212499968,0.0014278749951999,0.012152124992,2.493202963073097,0.0,0.0,0.0270740735107657,0.0,0.0,-0.09556973146624,0.0,0.0,0.0,23.72878362008848
2023-09-08 15:55:11.960,-0.079456,0.02293,-0.117577,0.094778,0.094884,0.073288,48.359251,-4.557269,50.093121,50.788002,0.61359,0.61264,0.592768,-0.106663,-0.081062,-9.955886499999998,0.024334,0.0401534999999999,-0.0774105,33.253374,-0.1076435,-0.0779425,-9.939628,0.0236265,0.040702,-0.0772055,-0.4548415147776,-0.1439092244992,0.7889066392576,-0.1176413895168,-0.1277793819392,-9.9828738142464,0.6066477134845156,0.6489319987651704,162.8138070082167,0.001422,0.001429,0.012154,0.149442,-0.004808,0.00608,0.98874,0.001422,0.001429,0.012154,2.493487171428572,0.0,0.0,0.0265860571428571,0.0,0.0,-0.0999136,0.0,0.0,0.0,23.662671170424236
2023-09-08 15:55:11.985,-0.0745085126656,0.0191981345535999,-0.1210463661184,0.095109249152,0.0952127491584,0.0734467495936,48.359251,-4.557269,50.096289741888,50.788002,0.614877496704,0.6139231217152,0.5937448724992,-0.1033517584768,-0.0771095101184,-9.9388593560896,0.0261071204608,0.043789428192,-0.0751383183168,33.253515874636804,-0.1022800762304,-0.0695322090304,-9.9201580498432,0.0252024334656,0.044392615552,-0.0750308180672,-0.460614,-0.133948,0.794476,-0.123312,-0.13049,-9.861486,0.6414190006617944,0.7181880949555485,162.70627026733786,0.0014238749952,0.0014302499968,0.0121533750016,0.1503738726144,-0.0053542486016,0.0064762489856,0.988593125376,0.0014238749952,0.0014302499968,0.0121533750016,2.493960848787383,0.0,0.0,0.0257727020821942,0.0,0.0,-0.10715333146624,0.0,0.0,0.0,23.555134429545376
2023-09-08 15:55:12.000,-0.07154,0.016959,-0.123128,0.095308,0.09541,0.073542,48.359251,-4.557269,50.098191,50.788002,0.61565,0.614693,0.594331,-0.101365,-0.074738,-9.928643,0.027171,0.045971,-0.073775,33.253601,-0.099062,-0.064486,-9.908476,0.026148,0.046607,-0.073726,-0.4604081241216,-0.1374850150912,0.7989887692544,-0.141700203456,-0.1045320142463999,-9.8776455689472,0.6622819153917185,0.7597420363434716,162.6417477823389,0.001425,0.001431,0.012153,0.150933,-0.005682,0.006714,0.988505,0.001425,0.001431,0.012153,2.494245057142857,0.0,0.0,0.0252846857142857,0.0,0.0,-0.1114972,0.0,0.0,0.0,23.49061194454643
2023-09-08 15:55:12.020,-0.065179,0.0145905,-0.123534,0.093961,0.0940564999999999,0.072917,48.359251,-4.557269,50.087761,50.788002,0.613626,0.612673,0.5933935,-0.1230084999999999,-0.069889,-9.93073,0.0281995,0.0475825,-0.072096,33.25399,-0.124289,-0.064827,-9.918119,0.0282765,0.0477765,-0.0718365,-0.4601336241216,-0.1422010150912,0.8050057692543999,-0.166217703456,-0.0699215142464,-9.8991915689472,0.6941383688009923,0.8181837314468156,162.55978616974545,0.001418,0.001424,0.0121514999999999,0.151644,-0.006139,0.0070705,0.9883905,0.001418,0.001424,0.0121514999999999,2.494624,0.0,0.0,0.024634,0.0,0.0,-0.117289,0.0,0.0,0.0,23.40865033195297
2023-09-08 15:55:12.025,-0.0635887703552,0.0139983825791999,-0.1236354987008,0.0936242543104,0.0937181293312,0.072760752,48.359251,-4.557269,50.085153533376,50.788002,0.6131200064768,0.612168006464,0.593159128,-0.1284193057408,-0.0686767655167999,-9.9312517433216,0.0284566217088,0.0479853698432,-0.0716762553728,33.2540872487552,-0.1305956692736,-0.0649122489088,-9.9205297191424,0.0288086181888,0.0480688712576,-0.0713641310463999,-0.460065,-0.14338,0.80651,-0.172347,-0.061269,-9.904578,0.7021023802126599,0.8327939682092272,162.53929602887425,0.0014162500224,0.0014222500224,0.0121511250048,0.1518217477248,-0.0062532485376,0.0071596238592,0.9883618753664,0.0014162500224,0.0014222500224,0.0121511250048,2.494702818991104,0.0,0.0,0.024088466982912,0.0,0.0,-0.116892465075712,0.0,0.0,0.0,23.388160191081766
2023-09-08 15:55:12.040,-0.058818,0.012222,-0.12394,0.092614,0.092703,0.072292,48.359251,-4.557269,50.077331,50.788002,0.611602,0.610653,0.592456,-0.144652,-0.06504,-9.932817,0.029228,0.049194,-0.070417,33.254379,-0.149516,-0.065168,-9.927762,0.030405,0.048946,-0.069947,-0.4635810150016,-0.1408948643968,0.808330632768,-0.1481571467904,-0.0508803306751999,-9.8985224741632,0.7259948222102661,0.8766254265501595,162.477824557152,0.001411,0.001417,0.01215,0.152355,-0.006596,0.007427,0.988276,0.001411,0.001417,0.01215,2.49493928,0.0,0.0,0.02245184,0.0,0.0,-0.11570284,0.0,0.0,0.0,23.32668871935951
2023-09-08 15:55:12.065,-0.0524480163072,0.0076726366464,-0.1274456160256,0.0929414991616,0.0930286241664,0.0724526245888,48.359251,-4.557269,50.0806866164096,50.788002,0.6128413718272,0.6118879968384,0.593412247552,-0.1351476493312,-0.0616468836864,-9.9065539422336,0.0306273714176,0.0502927471872,-0.0684595050111999,33.2545889994624,-0.1330704171008,-0.067064870144,-9.9059201809152,0.0312212479104,0.0503141214976,-0.0681795045248,-0.469441,-0.136753,0.811365,-0.107841,-0.033566,-9.88843,0.7684652100498671,0.9525063302871872,162.3799564543142,0.0014122499968,0.0014182499967999,0.0121493750016,0.153204997824,-0.007186623488,0.0079001237888,0.9881366253568,0.0014122499968,0.0014182499967999,0.0121493750016,2.495333378991104,0.0,0.0,0.019724146982912,0.0,0.0,-0.113720145075712,0.0,0.0,0.0,23.22882061652172
2023-09-08 15:55:12.080,-0.048626,0.004943,-0.129549,0.093138,0.093224,0.072549,48.359251,-4.557269,50.0827,50.788002,0.613585,0.612629,0.593986,-0.129445,-0.059611,-9.890796,0.031467,0.050952,-0.067285,33.254715,-0.123203,-0.068203,-9.892815,0.031711,0.051135,-0.067119,-0.4670421147648,-0.1415316453888,0.8111459990656,-0.119602925184,-0.0449319234944,-9.8778159547136,0.7939476167127817,0.998035183338381,162.32123519174274,0.001413,0.001419,0.012149,0.153715,-0.007541,0.008184,0.988053,0.001413,0.001419,0.012149,2.49556984,0.0,0.0,0.01808752,0.0,0.0,-0.11253052,0.0,0.0,0.0,23.170099353950263
2023-09-08 15:55:12.105,-0.0412398581942857,-0.0004924325138285,-0.1289967692708571,0.0931686249216,0.0932520356425142,0.0725696249472,48.359251,-4.557269,50.08358472987795,50.788002,0.6142714268141715,0.6133125696786286,0.5946261769325715,-0.129669999424,-0.0695440995712,-9.8923153711104,0.0321176233344,0.0494445038592,-0.0654237547648,33.2553393734016,-0.1292886094208,-0.0704417442688,-9.8934706233216,0.0319872492928,0.0492300048768,-0.0652740047232,-0.463044,-0.149496,0.810781,-0.139206,-0.063875,-9.860126,0.8369193413396967,1.0695472950716722,162.2285953154012,0.0014148749951999,0.0014208749952,0.0121477500032,0.1545199979392,-0.0080928735871999,0.0086577487872,0.987918625344,0.0014148749951999,0.0014208749952,0.0121477500032,2.495963938991104,0.0,0.0,0.015359826982912,0.0,0.0,-0.110547825075712,0.0,0.0,0.0,23.077459477608727
2023-09-08 15:55:12.120,-0.0368081428571428,-0.0037537142857142,-0.1286654285714285,0.0931869999999999,0.0932688571428571,0.072582,48.359251,-4.557269,50.084115571428576,50.788002,0.6146832857142858,0.6137227142857142,0.5950102857142857,-0.129805,-0.075504,-9.893227,0.032508,0.04854,-0.064307,33.255714,-0.13294,-0.071785,-9.893864,0.032153,0.048087,-0.064167,-0.46330807612672,-0.14924752393984,0.8101989975168,-0.13914434973696,-0.0638967500928,-9.85568058103296,0.8627025521284805,1.1124548550260065,162.1730110101424,0.001416,0.001422,0.012147,0.155003,-0.008424,0.008942,0.987838,0.001416,0.001422,0.012147,2.4962004,0.0,0.0,0.0137232,0.0,0.0,-0.1093582,0.0,0.0,0.0,23.02187517234992
2023-09-08 15:55:12.305,0.0178494275199999,-0.0439760039424,-0.124578912128,0.0934136249215999,0.0934763213568,0.0727346249472,48.359251,-4.557269,50.0906625870208,50.788002,0.6197628553855999,0.6187811411072,0.599747605504,-0.13456967335168,-0.0710473515417599,-9.8252302735232,0.0097437578752,-0.0056474062540799,-0.05075297968896,33.25698494956032,-0.1353385241702399,-0.07165365004544,-9.82306082449408,0.0089382830310399,-0.00686445598976,-0.050430754752,-0.466565,-0.146183,0.803021,-0.138384,-0.064165,-9.800854,1.0758628316980163,1.3241841729972386,161.56909221708054,0.0014113750016,0.00141830000128,0.01214607500032,0.16023664818944,-0.00990122448896,0.01111759924736,0.98696480030208,0.0014113750016,0.00141830000128,0.01214607500032,2.499116738991104,0.0,0.0,-0.0064617730170879,0.0,0.0,-0.094686225075712,0.0,0.0,0.0,22.417956379288057
2023-09-08 15:55:12.320,0.0222811428571428,-0.0472372857142857,-0.1242475714285714,0.093432,0.0934931428571428,0.0727469999999999,48.359251,-4.557269,50.09119342857143,50.788002,0.6201747142857142,0.6191912857142857,0.6001317142857143,-0.134956,-0.070686,-9.819717,0.007898,-0.010041,-0.049654,33.257088,-0.135533,-0.071643,-9.81732,0.007056,-0.01132,-0.049317,-0.466565937504,-0.1461826249984,0.8030206249984,-0.138396187552,-0.0639626866368,-9.7905795186624,1.0931461773300977,1.3413514941807705,161.52012560259084,0.001411,0.001418,0.012146,0.160661,-0.010021,0.011294,0.986894,0.001411,0.001418,0.012146,2.4993532,0.0,0.0,-0.0080983999999999,0.0,0.0,-0.0934966,0.0,0.0,0.0,22.36898976479836
2023-09-08 15:55:12.360,0.034099,-0.055934,-0.123364,0.093481,0.093538,0.07278,48.359251,-4.557269,50.092609,50.788002,0.621273,0.620285,0.601156,-0.1285754999999999,-0.0657085,-9.798219,-0.0040725,-0.0271655,-0.0468725,33.2566205,-0.12966,-0.0664685,-9.7951195,-0.0050824999999999,-0.028437,-0.046582,-0.466568437504,-0.1461816249984,0.8030196249984001,-0.138428687552,-0.0634231866368,-9.7631810186624,1.0632377804242688,1.2605930929570808,161.41212305820866,0.0014134999999999,0.0014204999999999,0.0121475,0.1615835,-0.0093575,0.0109315,0.9867535,0.0014134999999999,0.0014204999999999,0.0121475,2.49998376,0.0,0.0,-0.01246272,0.0,0.0,-0.09032428,0.0,0.0,0.0,22.260987220416183
2023-09-08 15:55:12.385,0.0402598175616,-0.0607185710848,-0.1160079771648,0.0928872515199999,0.0929430015232,0.0724437508608,48.359251,-4.557269,50.0879244286592,50.788002,0.6157082225792,0.6147445975168,0.5962574708736,-0.1245876977088,-0.062597570464,-9.7847827843968,-0.0115540433472,-0.0378682851008,-0.0451340669503999,33.256328313248,-0.1259893843968,-0.0632344457792,-9.7812442230208,-0.0126690430784,-0.0391350976128,-0.044872629376,-0.46657,-0.146181,0.803019,-0.138449,-0.063086,-9.746057,1.0445450802115606,1.2101192214057166,161.34462164077388,0.0014150624959999,0.001422062496,0.0121484374976,0.162160061024,-0.0089428135616,0.01070493808,0.9866656877248,0.0014150624959999,0.001422062496,0.0121484374976,2.500377858991104,0.0,0.0,-0.015190413017088,0.0,0.0,-0.0883415850757119,0.0,0.0,0.0,22.1934858029814
2023-09-08 15:55:12.400,0.0439563333333333,-0.0635893333333333,-0.1115943333333333,0.092531,0.092586,0.072242,48.359251,-4.557269,50.08511366666667,50.788002,0.6123693333333333,0.6114203333333333,0.5933183333333334,-0.122195,-0.060731,-9.776721,-0.016043,-0.04429,-0.044091,33.256153,-0.123787,-0.061294,-9.772919,-0.017221,-0.045554,-0.043847,-0.4665042497194666,-0.1469701283669333,0.8045241314218667,-0.1380497482965333,-0.0624639973461333,-9.732609192622933,1.0333293835184396,1.179834691733391,161.3041205138265,0.001416,0.001423,0.012149,0.162506,-0.008694,0.010569,0.986613,0.001416,0.001423,0.012149,2.50061432,0.0,0.0,-0.0168270399999999,0.0,0.0,-0.08715196,0.0,0.0,0.0,22.15298467603401
2023-09-08 15:55:12.480,0.063671,-0.0789,-0.088055,0.090631,0.090682,0.071166,48.359251,-4.557269,50.070123,50.788002,0.594562,0.593691,0.577643,-0.1216563333333333,-0.059607,-9.700876333333332,-0.036327,-0.0712253333333333,-0.041177,33.255067000000004,-0.1233476666666666,-0.06053,-9.696946333333331,-0.0369483333333333,-0.0721766666666666,-0.041041,-0.4661535830528,-0.1511787950336,0.8125514647552,-0.1359204149631999,-0.0591466640128,-9.6608878592896,0.870723961260312,0.8760524687550287,161.0977984117999,0.001402,0.001409,0.012146,0.164254,-0.006293,0.00875,0.986359,0.001402,0.001409,0.012146,2.50187544,0.0,0.0,-0.02555568,0.0,0.0,-0.0808073199999999,0.0,0.0,0.0,21.946662574007405
2023-09-08 15:55:12.505,0.0692028608384,-0.0833543635968,-0.0804812693888,0.0909541241728,0.0910044991744,0.0713291245824,48.359251,-4.557269,50.0718579955584,50.788002,0.5957357469952,0.5948609970048,0.5785592476544,-0.1214880004309333,-0.0592557508992,-9.677174935675732,-0.0426657337728,-0.0796426034517333,-0.0402663773312,33.2547276258688,-0.1232103753514666,-0.0602912506112,-9.673204935778134,-0.0431131092181333,-0.0804962287018666,-0.0401641272448,-0.466044,-0.152494,0.81506,-0.135255,-0.05811,-9.638475,0.8015036748404564,0.7557316397996665,161.03624141627182,0.0014038749952,0.0014108749952,0.0121447500032,0.1647739986688,-0.0053530024063999,0.00798437696,0.986284000192,0.0014038749952,0.0014108749952,0.0121447500032,2.502269538991104,0.0,0.0,-0.0282833730170879,0.0,0.0,-0.078824625075712,0.0,0.0,0.0,21.88510557847934
2023-09-08 15:55:12.520,0.072522,-0.086027,-0.075937,0.091148,0.091198,0.071427,48.359251,-4.557269,50.072899,50.788002,0.59644,0.595563,0.579109,-0.121387,-0.059045,-9.662954,-0.046469,-0.084693,-0.03972,33.254524,-0.123128,-0.060148,-9.65896,-0.046812,-0.085488,-0.039638,-0.4649126201728,-0.1537045051648,0.8134467431168,-0.1120799011199999,-0.0560561162368,-9.627221201984,0.7599712194615239,0.6835386495910721,160.9993069668169,0.001405,0.001412,0.012144,0.165086,-0.004789,0.007525,0.986239,0.001405,0.001412,0.012144,2.502506,0.0,0.0,-0.02992,0.0,0.0,-0.077635,0.0,0.0,0.0,21.848171129024426
2023-09-08 15:55:12.545,0.0767232392448,-0.0895876158848,-0.0678595206784,0.0914711241728,0.091519874176,0.071589499584,48.359251,-4.557269,50.074395871168,50.788002,0.5976262469632,0.5967448719744,0.5800321226368,-0.1052332913535999,-0.0562818820736,-9.6369903164672,-0.0501746155136,-0.0893454880896,-0.0394456257024,33.2546433746944,-0.1051892959232,-0.0557361362943999,-9.6341425635328,-0.0506007403008,-0.0898717387775999,-0.0394173755648,-0.463027,-0.155722,0.810758,-0.073455,-0.052633,-9.608465,0.6822640174278525,0.5530836555778623,160.9408654213243,0.0014062499968,0.0014138749952,0.0121477499904,0.1655803737344,-0.0037746275968,0.0066700021888,0.9861658751872,0.0014062499968,0.0014138749952,0.0121477499904,2.502506,0.0,0.0,-0.031157496832,0.0,0.0,-0.06951302079232,0.0,0.0,0.0,21.789729583531823
2023-09-08 15:55:12.560,0.079244,-0.091724,-0.063013,0.091665,0.091713,0.071687,48.359251,-4.557269,50.075294,50.788002,0.598338,0.597454,0.580586,-0.095541,-0.054624,-9.621412,-0.052398,-0.092137,-0.039281,33.254715,-0.094426,-0.053089,-9.619252,-0.052874,-0.092502,-0.039285,-0.4615892438656,-0.1534839904512,0.8166972753407999,-0.0850260493696,-0.050156114432,-9.5990625848832,0.6356393779181353,0.4748101248249131,160.90580025465158,0.001407,0.001415,0.01215,0.165877,-0.003166,0.006157,0.986122,0.001407,0.001415,0.01215,2.502506,0.0,0.0,-0.0319,0.0,0.0,-0.0646398,0.0,0.0,0.0,21.7546644168591
2023-09-08 15:55:12.585,0.082903365632,-0.0946902424064,-0.0549230207104,0.0919881241728,0.0920354991744,0.071849499584,48.359251,-4.557269,50.0765171218688,50.788002,0.5995373719296,0.5986489969408,0.5815159976192,-0.0974009952384,-0.0497365125119999,-9.6092345311744,-0.0547267440384,-0.0951613672576,-0.0389472508544,33.254836874688,-0.0986553641728,-0.0487408861312,-9.6077120295424,-0.055005244544,-0.0954757423872,-0.0390500006016,-0.459193,-0.149754,0.826596,-0.104311,-0.046028,-9.583392,0.553276905716548,0.3373722255598297,160.8461769867317,0.0014088749952,0.0014162499968,0.0121493750016,0.166383248704,-0.002100377728,0.0052501273216,0.9860445001984,0.0014088749952,0.0014162499968,0.0121493750016,2.502506,0.0,0.0,-0.033137496832,0.0,0.0,-0.05651782079232,0.0,0.0,0.0,21.695041148939225
2023-09-08 15:55:12.600,0.085099,-0.09647,-0.050069,0.092182,0.092229,0.071947,48.359251,-4.557269,50.077251,50.788002,0.600257,0.599366,0.582074,-0.098517,-0.046804,-9.601928,-0.056124,-0.096976,-0.038747,33.25491,-0.101193,-0.046132,-9.600788,-0.056284,-0.09726,-0.038909,-0.4580443700992,-0.155635900096,0.8249662430464,-0.0975587211904,-0.0483485099008,-9.579925110208,0.5038590850380459,0.2549089230537032,160.8104027817623,0.00141,0.001417,0.012149,0.166687,-0.001461,0.004706,0.985998,0.00141,0.001417,0.012149,2.502506,0.0,0.0,-0.03388,0.0,0.0,-0.0516446,0.0,0.0,0.0,21.65926694396981
2023-09-08 15:55:12.620,0.0859795,-0.095919,-0.0417205,0.090497,0.0905405,0.071135,48.359251,-4.557269,50.0696195,50.7875025,0.5977840000000001,0.5968985,0.5807815,-0.1019345,-0.044236,-9.591727,-0.056629,-0.0974575,-0.0388055,33.255272000000005,-0.102567,-0.0433715,-9.590074,-0.056673,-0.0975105,-0.0388155,-0.4565128700992,-0.163478400096,0.8227932430464,-0.0885557211904,-0.0514425099008,-9.575302610208,0.4365078962204176,0.143096209333923,160.76236027064056,0.001401,0.001408,0.0121479999999999,0.1670964999999999,-0.000595,0.003964,0.985932,0.001401,0.001408,0.0121479999999999,2.502506,0.0,0.0,-0.03487,0.0,0.0,-0.045147,0.0,0.0,0.0,21.61122443284808
2023-09-08 15:55:12.625,0.0861996221824,-0.0957812517632,-0.0396334017152,0.090075755392,0.0901183804032,0.0709320025983999,48.359251,-4.557269,50.0677116494208,50.7873776265984,0.5971657579136,0.596281632896,0.580458379136,-0.102788864064,-0.0435940082176,-9.5891767826432,-0.056755248384,-0.0975778734592,-0.0388201248128,33.2553624988416,-0.1029104956032,-0.0426813838336,-9.5873955342848,-0.0567702487552,-0.0975731241984,-0.0387921252992,-0.45613,-0.165439,0.82225,-0.086305,-0.052216,-9.574147,0.4196703145398148,0.1151433887046619,160.75034979659617,0.0013987500288,0.0014057500288,0.0121477500032,0.1671988736895999,-0.0003785027712,0.0037785023744,0.9859155002112,0.0013987500288,0.0014057500288,0.0121477500032,2.502506,0.0,0.0,-0.0349441740505599,0.0,0.0,-0.04373741804288,0.0,0.0,0.0,21.599213958803688
2023-09-08 15:55:12.640,0.08686,-0.095368,-0.033372,0.088812,0.088852,0.070323,48.359251,-4.557269,50.061988,50.787003,0.595311,0.594431,0.579489,-0.105352,-0.041668,-9.581526,-0.057134,-0.097939,-0.038864,33.255634,-0.103941,-0.040611,-9.57936,-0.057062,-0.097761,-0.038722,-0.4513813547392,-0.1621494859648,0.8218558733184,-0.0851859952256,-0.04175345536,-9.564188832512,0.3691567074027894,0.0312834956141429,160.71431775951885,0.001392,0.001399,0.012147,0.167506,0.000271,0.003222,0.985866,0.001392,0.001399,0.012147,2.502506,0.0,0.0,-0.0351666999999999,0.0,0.0,-0.0395086,0.0,0.0,0.0,21.56318192172637
2023-09-08 15:55:12.665,0.0886781203456,-0.0965786219008,-0.0257788944384,0.0891313741824,0.0891713741824,0.0704879995775999,48.359251,-4.557269,50.0627173731328,50.787003,0.596448497088,0.5955641220992001,0.5803896226944,-0.089064541696,-0.03780863488,-9.565126041984,-0.055968377984,-0.0967971279232,-0.0392177490944,33.2552577509632,-0.089937910848,-0.0366403851648,-9.5639012895744,-0.0558888780032,-0.0966478778496,-0.0392494986496,-0.443467,-0.156667,0.821199,-0.083321,-0.024316,-9.547592,0.2888353921209806,224.894845226252,160.653870866877,0.0013938749952,0.0014008749952,0.0121463750016,0.1680234986752,0.0013228723072,0.0023307522816,0.985778500224,0.0013938749952,0.0014008749952,0.0121463750016,2.502506,0.0,0.0,-0.0355375740505599,0.0,0.0,-0.03246061804288,0.0,0.0,0.0,21.502735029084533
2023-09-08 15:55:12.680,0.089769,-0.097305,-0.021223,0.089323,0.089363,0.070587,48.359251,-4.557269,50.063155,50.787003,0.597131,0.596244,0.58093,-0.079292,-0.035493,-9.555286,-0.055269,-0.096112,-0.03943,33.255032,-0.081536,-0.034258,-9.554626,-0.055185,-0.09598,-0.039566,-0.4425279959936,-0.1578441300224,0.8150609738112,-0.0869007652736,-0.0281848915072,-9.54195760096,0.2406422739549457,359.8139033081415,160.61760248370075,0.001395,0.001402,0.012146,0.168334,0.001954,0.001796,0.985726,0.001395,0.001402,0.012146,2.502506,0.0,0.0,-0.0357601,0.0,0.0,-0.0282318,0.0,0.0,0.0,21.46646664590827
2023-09-08 15:55:12.705,0.0906283728,-0.0969870841472,-0.0144263507327999,0.0896425825151999,0.0896819575168,0.0707509579136,48.359251,-4.557269,50.0634222909824,50.787003,0.5982920386944,0.5974010803712,0.5818437476607999,-0.093101339648,-0.0361529983103999,-9.5450147762944,-0.0531808803456,-0.0935788814848,-0.04008624832,33.2549532502016,-0.0940859678719999,-0.0352048725759999,-9.5430772795648,-0.0527875061376,-0.0932068820992,-0.0399897489152,-0.440963,-0.159806,0.804831,-0.092867,-0.034633,-9.532567,0.1660147121862031,359.6842719388503,160.55726302037044,0.0013968749951999,0.0014038749952,0.0121453750016,0.168852748672,0.0029596224256,0.0009622521344,0.985635375232,0.0013968749951999,0.0014038749952,0.0121453750016,2.502506,0.0,0.0,-0.03613097405056,0.0,0.0,-0.02118381804288,0.0,0.0,0.0,21.40612718257796
2023-09-08 15:55:12.720,0.091144,-0.0967963333333333,-0.0103483333333333,0.0898343333333333,0.0898733333333333,0.0708493333333333,48.359251,-4.557269,50.06358266666667,50.787003,0.5989886666666666,0.5980953333333333,0.5823919999999999,-0.101387,-0.036549,-9.538852,-0.051928,-0.092059,-0.04048,33.254906,-0.101616,-0.035773,-9.536148,-0.051349,-0.091543,-0.040244,-0.440861749568,-0.1609908175552,0.807089447136,-0.0954190733888,-0.0321923020864,-9.5281965438528,0.1212378694496821,359.60649258630417,160.5210590952212,0.001398,0.001405,0.012145,0.169164,0.003563,0.000462,0.985581,0.001398,0.001405,0.012145,2.502506,0.0,0.0,-0.0363535,0.0,0.0,-0.016955,0.0,0.0,0.0,21.369923257428724
2023-09-08 15:55:12.785,0.0933783728,-0.0959697508138666,0.0073229826005333,0.0906652491818666,0.0907026241834666,0.0712756245802666,48.359251,-4.557269,50.064277624315736,50.787003,0.6020073720277334,0.6011037470378667,0.5847677476608,-0.0973651289599999,-0.0324621290239999,-9.5188011447424,-0.0411599481024,-0.0813201980736,-0.0415492489472,33.2556185617984,-0.1001258764671999,-0.03144644176,-9.5164960818496,-0.0405809481024,-0.0806490107263999,-0.0416894360768,-0.440423,-0.166125,0.816876,-0.106478,-0.021616,-9.509258,292.4633687260146,359.3064133985397,160.36184860466048,0.001402062496,0.0014098749951999,0.0121498749952,0.170537123648,0.0059094976896,-0.00134581072,0.9853315627456,0.001402062496,0.0014098749951999,0.0121498749952,2.502506,0.0,0.0,-0.03731777405056,0.0,0.0,0.00136978195712,0.0,0.0,0.0,21.210712766868
2023-09-08 15:55:12.800,0.093894,-0.095779,0.011401,0.090857,0.090894,0.071374,48.359251,-4.557269,50.064438,50.787003,0.602704,0.601798,0.585316,-0.096437,-0.031519,-9.514174,-0.038675,-0.078842,-0.041796,33.255783,-0.099782,-0.030448,-9.511961,-0.038096,-0.078135,-0.042023,-0.4380301147904,-0.1697351404031999,0.8166607490816,-0.1007341004928,-0.0273557744896,-9.5112008832896,359.9272916557979,359.2371639915628,160.32510752928647,0.001403,0.001411,0.012151,0.170854,0.006451,-0.001763,0.985274,0.001403,0.001411,0.012151,2.502506,0.0,0.0,-0.0375403,0.0,0.0,0.0055986,0.0,0.0,0.0,21.17397169149399
2023-09-08 15:55:12.820,0.092325,-0.093143,0.0163305,0.0890799999999999,0.0891145,0.070499,48.359251,-4.557269,50.0625675,50.7875025,0.600043,0.5991425,0.583861,-0.0959039999999999,-0.031148,-9.5135425,-0.0347805,-0.074587,-0.042373,33.255865,-0.0971535,-0.0298545,-9.513121,-0.034198,-0.07396,-0.0424494999999999,-0.4348396147904,-0.1745486404031999,0.8163737490816,-0.0930756004928,-0.0350087744896,-9.5137913832896,359.89179692038954,359.1572363791421,160.2741429334096,0.0013939999999999,0.0014015,0.01215,0.171294,0.007084,-0.0021905,0.985192,0.0013939999999999,0.0014015,0.01215,2.502506,0.0,0.0,-0.037837,0.0,0.0,0.011237,0.0,0.0,0.0,21.123007095617112
2023-09-08 15:55:12.825,0.0919327550208,-0.0924840084352,0.0175628592256,0.0886357556864,0.0886696306944,0.0702802528,48.359251,-4.557269,50.0620998809856,50.7876273734016,0.5993777585152,0.5984786334976,0.583497254656,-0.0957707517056,-0.0310552511871999,-9.5133846270208,-0.0338068874624,-0.073523263616,-0.0425172481536,33.2558854997376,-0.0964963834112,-0.0297061268992,-9.513410996288,-0.0332235124736,-0.07291626336,-0.0425561236352,-0.434042,-0.175752,0.816302,-0.091161,-0.036922,-9.514439,359.8829233501206,359.1372547318052,160.26140194752708,0.0013917500288,0.0013991250304,0.0121497500032,0.171403998592,0.0072422479744,-0.002297373632,0.9851715002624,0.0013917500288,0.0013991250304,0.0121497500032,2.50254911194816,0.0,0.0,-0.03758846568128,0.0,0.0,0.0121847378688,0.0,0.0,0.0,21.1102661097346
2023-09-08 15:55:12.840,0.090756,-0.090507,0.02126,0.087303,0.087335,0.069624,48.359251,-4.557269,50.060697,50.788002,0.597382,0.596487,0.582406,-0.095371,-0.030777,-9.512911,-0.030886,-0.070332,-0.04295,33.255947,-0.094525,-0.029261,-9.514281,-0.0303,-0.069785,-0.042876,-0.4363073846656,-0.1721639846912,0.8195333887872,-0.0967871490048,-0.0347736158336,-9.5141828739072,359.8563021849812,359.07730876672133,160.22317833753272,0.001385,0.001392,0.012149,0.171734,0.007717,-0.002618,0.98511,0.001385,0.001392,0.012149,2.50267845,0.0,0.0,-0.03684285,0.0,0.0,0.015028,0.0,0.0,0.0,21.072042499740235
2023-09-08 15:55:12.865,0.089902877184,-0.0883126306176,0.0269493604352,0.0876192491904,0.0876512491904,0.0697908745728,48.359251,-4.557269,50.060278251072,50.788002,0.5984888721664,0.597590122176,0.5832941227264,-0.090814761664,-0.0332932435584,-9.5150691194752,-0.0257816380671999,-0.0655526372352,-0.0431143745792,33.2564832486272,-0.0922475058304,-0.032754741056,-9.51465599904,-0.0252268879872,-0.0649675123328,-0.0430972494336,-0.440083,-0.166184,0.824919,-0.106164,-0.031193,-9.513756,359.8242524403636,358.9895390191709,160.15847008219868,0.0013868749951999,0.0013938749952,0.0121483750016,0.1722927485696,0.0084213731968,-0.0030298739456,0.9850050002688,0.0013868749951999,0.0013938749952,0.0121483750016,2.50289401194816,0.0,0.0,-0.03560016568128,0.0,0.0,0.0197667378688,0.0,0.0,0.0,21.007334244406195
2023-09-08 15:55:12.880,0.089391,-0.086996,0.030363,0.087809,0.087841,0.069891,48.359251,-4.557269,50.060027,50.788002,0.599153,0.598252,0.583827,-0.088081,-0.034803,-9.516364,-0.022719,-0.062685,-0.043213,33.256805,-0.090881,-0.034851,-9.514881,-0.022183,-0.062077,-0.04323,-0.4361751083264,-0.1710706458496,0.8321392808064,-0.1025744846848,-0.0407506657792,-9.5186775209984,359.80502246231697,358.9368768111348,160.11964486395254,0.001388,0.001395,0.012148,0.172628,0.008844,-0.003277,0.984942,0.001388,0.001395,0.012148,2.50302335,0.0,0.0,-0.03485455,0.0,0.0,0.02261,0.0,0.0,0.0,20.968509026160064
2023-09-08 15:55:12.905,0.08810975328,-0.0844260065792,0.035531736768,0.088126186688,0.0881578741888,0.070056624576,48.359251,-4.557269,50.0592951268736,50.788002,0.6002773721216,0.5993723096319999,0.5847244977024,-0.0992378464384,-0.0325817556863999,-9.516123375616,-0.0178708874112,-0.0574150134912,-0.0433323746944,33.2569318746752,-0.099946601792,-0.0337266278784,-9.5158253725824,-0.0172661375872,-0.0568851382911999,-0.0433943745792,-0.429662,-0.179215,0.844173,-0.096592,-0.05668,-9.52688,359.7843602247255,358.86096009762724,160.0558676626521,0.0013892499968,0.0013968749951999,0.0121473750016,0.173177998592,0.0094633734144,-0.0035744992384,0.9848382502656,0.0013892499968,0.0013968749951999,0.0121473750016,2.50323891194816,0.0,0.0,-0.03361186568128,0.0,0.0,0.0273487378688,0.0,0.0,0.0,20.904731824859624
2023-09-08 15:55:12.920,0.087341,-0.082884,0.038633,0.0883164999999999,0.088348,0.070156,48.359251,-4.557269,50.058856,50.788002,0.600952,0.6000445,0.585263,-0.105932,-0.031249,-9.515979,-0.014962,-0.054253,-0.043404,33.257008,-0.105386,-0.033052,-9.516392,-0.014316,-0.05377,-0.043493,-0.4292868108992,-0.179787814944,0.8388419772544,-0.0998436388736,-0.0547973044672,-9.5307196413824,359.7719627975379,358.815409758567,160.01760108063976,0.00139,0.001398,0.012147,0.173508,0.009835,-0.003753,0.984776,0.00139,0.001398,0.012147,2.50336825,0.0,0.0,-0.03286625,0.0,0.0,0.030192,0.0,0.0,0.0,20.866465242847283
2023-09-08 15:55:12.960,0.085291,-0.078772,0.046903,0.088824,0.088855,0.070421,48.359251,-4.557269,50.057685,50.788002,0.602751,0.601837,0.586699,-0.1086294999999999,-0.035327,-9.5253655,-0.0095044999999999,-0.0475755,-0.0434839999999999,33.257189,-0.1081864999999999,-0.0370755,-9.526784,-0.0089765,-0.047117,-0.043502,-0.4282863108992,-0.181315314944,0.8246259772544,-0.1085146388736,-0.0497768044672,-9.5409586413824,359.7582404583446,358.7172047924816,159.9159870156733,0.001393,0.001401,0.0121495,0.17437,0.010708,-0.004088,0.984614,0.001393,0.001401,0.012153,2.50371315,0.0,0.0,-0.03087795,0.0,0.0,0.037774,0.0,0.0,0.0,20.76485117788081
2023-09-08 15:55:12.985,0.0833631924352,-0.0751257593344,0.0507042402688,0.088250563968,0.0882803139712,0.0701385007231999,48.359251,-4.557269,50.0602543684224,50.7876898132992,0.6023097511296001,0.6013960636287999,0.5866249376896,-0.110315433184,-0.0378757434752,-9.5312320474816,-0.006093571232,-0.0434020731839999,-0.043533999872,33.2573021247104,-0.1099368080192,-0.0395901810624,-9.5332789833728,-0.0056393210432,-0.0429588856448,-0.0435076249856,-0.427661,-0.18227,0.815741,-0.113934,-0.046639,-9.547358,359.7496640183045,358.6558268458062,159.85247838765176,0.0013948749952,0.0014028749952,0.012151062496,0.1749237485824,0.0111867487744,-0.0042248746496,0.9845096252672,0.0013948749952,0.0014028749952,0.0121523750016,2.50392871194816,0.0,0.0,-0.02963526568128,0.0,0.0,0.0425127378688,0.0,0.0,0.0,20.70134254985928
2023-09-08 15:55:13.000,0.0822065,-0.072938,0.052985,0.0879065,0.0879355,0.069969,48.359251,-4.557269,50.061796,50.7875025,0.6020449999999999,0.6011314999999999,0.5865805,-0.111327,-0.039405,-9.534752,-0.004047,-0.040898,-0.043564,33.25737,-0.110987,-0.041099,-9.537176,-0.003637,-0.040464,-0.043511,-0.42575317936,-0.1812038704511999,0.818608824736,-0.1160017588223999,-0.0464698742784,-9.55224708336,359.7445181191512,358.6189998263962,159.81437295070683,0.001396,0.001404,0.012152,0.175256,0.011474,-0.004307,0.984447,0.001396,0.001404,0.012152,2.50405805,0.0,0.0,-0.02888965,0.0,0.0,0.045356,0.0,0.0,0.0,20.663237112914345
2023-09-08 15:55:13.040,0.079122,-0.067104,0.059067,0.086989,0.087016,0.069517,48.359251,-4.557269,50.065907,50.787003,0.601339,0.600426,0.586462,-0.1082785,-0.038984,-9.5535955,-0.0031115,-0.0363389999999999,-0.0430185,33.2569445,-0.1091945,-0.04018,-9.554733,-0.0029465,-0.035998,-0.043055,-0.42066567936,-0.1783608704512,0.826256324736,-0.1215157588224,-0.0460188742784,-9.56528458336,359.73964797789256,358.5437704678955,159.71313130830725,0.0013915,0.001399,0.0121505,0.1761265,0.012109,-0.004475,0.9842825,0.0013915,0.001399,0.0121505,2.50440295,0.0,0.0,-0.02690135,0.0,0.0,0.052938,0.0,0.0,0.0,20.561995470514773
2023-09-08 15:55:13.065,0.076737631104,-0.0639721330176,0.0633151141248,0.0873058741888,0.0873328741888,0.0696838745728,48.359251,-4.557269,50.0644463787392,50.787003,0.6024414971776,0.6015241221888,0.587349497728,-0.1063731923776,-0.0387208756736,-9.5653726573504,-0.0025268139968,-0.0334896322944,-0.0426775633727999,33.2566785631808,-0.1080741903679999,-0.0396056264703999,-9.5657060969088,-0.0025149386048,-0.0332067571455999,-0.0427700007296,-0.417486,-0.176584,0.831036,-0.124962,-0.045737,-9.573433,359.73660414739817,358.4967522391996,159.64985544379414,0.0013886875072,0.001395875008,0.0121495625024,0.1766705611072,0.012505873984,-0.0045799997312,0.9841796877632,0.0013886875072,0.001395875008,0.0121495625024,2.50461851194816,0.0,0.0,-0.02565866568128,0.0,0.0,0.0576767378687999,0.0,0.0,0.0,20.498719606001657
2023-09-08 15:55:13.080,0.075307,-0.062093,0.065864,0.087496,0.087523,0.069784,48.359251,-4.557269,50.06357,50.787003,0.603103,0.602183,0.587882,-0.10523,-0.038563,-9.572439,-0.002176,-0.03178,-0.042473,33.256519,-0.107402,-0.039261,-9.57229,-0.002256,-0.031532,-0.042599,-0.4199351354496,-0.1752981195136,0.829734744448,-0.1145467055616,-0.0460771264512,-9.5805839055104,359.73477783663395,358.46854110939483,159.61188966590765,0.001387,0.001394,0.012149,0.176997,0.012744,-0.004643,0.984118,0.001387,0.001394,0.012149,2.50474785,0.0,0.0,-0.02491305,0.0,0.0,0.06052,0.0,0.0,0.0,20.460753828115173
2023-09-08 15:55:13.105,0.0722745077632,-0.0588090500736,0.0698646147584,0.0878139158528,0.08784070752,0.069949624576,48.359251,-4.557269,50.0617722962688,50.787003,0.60422799712,0.6033040387968001,0.5887824143616,-0.1073787444992,-0.0399904963456,-9.581712101260798,-0.0033522469888,-0.0292650064384,-0.0420423761024,33.256187750848,-0.1067088767744,-0.040232872512,-9.5822030996224,-0.003518496768,-0.0289826315264,-0.0420246264704,-0.424017,-0.173155,0.827566,-0.097188,-0.046644,-9.592502,359.7289050342683,358.43026046470635,159.54979552382173,0.0013882499968,0.0013958749952,0.0121483750016,0.1775307486336,0.0130608741888,-0.0047598747008,0.9840167502592,0.0013882499968,0.0013958749952,0.0121483750016,2.50496341194816,0.0,0.0,-0.02367036568128,0.0,0.0,0.0652587378688,0.0,0.0,0.0,20.398659686029248
2023-09-08 15:55:13.120,0.070455,-0.0568386666666666,0.072265,0.0880046666666666,0.0880313333333333,0.070049,48.359251,-4.557269,50.060693666666666,50.787003,0.604903,0.6039766666666667,0.5893226666666667,-0.108668,-0.040847,-9.587276,-0.004058,-0.027756,-0.041784,33.255989,-0.106293,-0.040816,-9.588151,-0.004276,-0.027453,-0.04168,-0.4252683803392,-0.1742576922048,0.8261548689792,-0.0862917660096,-0.0140014232255999,-9.5468401176768,359.7253813287938,358.4072919210953,159.51253878423194,0.001389,0.001397,0.012148,0.177851,0.013251,-0.00483,0.983956,0.001389,0.001397,0.012148,2.50509275,0.0,0.0,-0.02292475,0.0,0.0,0.068102,0.0,0.0,0.0,20.36140294643945
2023-09-08 15:55:13.185,0.0625705077632,-0.0483003834069333,0.0826666147584,0.0888312491861333,0.0888573741866666,0.070479624576,48.359251,-4.557269,50.05601962960213,50.787003,0.60782799712,0.6068913721301333,0.5916637476949332,-0.1120991841216,-0.0261253269952,-9.5762000109056,-0.0098088693376,-0.022417880256,-0.0395220022272,33.254947376025605,-0.1079821858368,-0.028076012544,-9.605261420652798,-0.0087228081216,-0.0222822550912,-0.0393814397632,-0.430691,-0.179036,0.82004,-0.039075,0.127449,-9.348973,359.6939582056568,358.325265931514,159.360590526574,0.0013938749952,0.0014018749951999,0.0121512499968,0.179159123712,0.0138993743616,-0.0052451870912,0.9837073752448,0.0013938749952,0.0014018749951999,0.0121512499968,2.50565321194816,0.0,0.0,-0.01969376568128,0.0,0.0,0.0804227378688,0.0,0.0,0.0,20.209454688781506
2023-09-08 15:55:13.200,0.060751,-0.04633,0.085067,0.089022,0.089048,0.070579,48.359251,-4.557269,50.054941,50.787003,0.608503,0.607564,0.592204,-0.112891,-0.022728,-9.573644,-0.011136,-0.021186,-0.039,33.254707,-0.108372,-0.025136,-9.60921,-0.009749,-0.021089,-0.038851,-0.4292914940287999,-0.1837936452992,0.8244470188032,0.0258370269568,0.108757045248,-9.432403355968,359.68670667762245,358.3063367575933,159.32552535990123,0.001395,0.001403,0.012152,0.179461,0.014049,-0.005341,0.98365,0.001395,0.001403,0.012152,2.50578255,0.0,0.0,-0.01894815,0.0,0.0,0.0832659999999999,0.0,0.0,0.0,20.174389522108758
2023-09-08 15:55:13.220,0.055268,-0.0418475,0.086431,0.088009,0.0880335,0.070072,48.359251,-4.557269,50.060783,50.7875025,0.6071405,0.6062045,0.591512,-0.0339245,-0.0347435,-9.6156755,-0.0117165,-0.0196825,-0.0389765,33.254963000000004,-0.0259949999999999,-0.033376,-9.612119,-0.0116245,-0.0194625,-0.0389675,-0.4274254940288,-0.1901371452992,0.8303230188032,0.1123860269568,0.083834545248,-9.543643355968,359.6712654650437,358.2866556573305,159.27983197573954,0.00139,0.0013974999999999,0.0121514999999999,0.179855,0.0141915,-0.0055105,0.983575,0.00139,0.0013974999999999,0.0121514999999999,2.505955,0.0,0.0,-0.017954,0.0,0.0,0.087057,0.0,0.0,0.0,20.12869613794706
2023-09-08 15:55:13.225,0.0538972675456,-0.040726889344,0.0867719956352,0.0877557532416,0.0877798782464,0.0699452516224,48.359251,-4.557269,50.0622434813056,50.7876273734016,0.60679987936,0.6058646293504,0.5913390022144,-0.0141831276928,-0.0377473365504,-9.6261832404992,-0.0118616231424,-0.0193066298112,-0.0389706250752,33.2550269991808,-0.0054010136063999,-0.035435973632,-9.6128462406912,-0.0120933689984,-0.0190558802048,-0.0389966246272,-0.426959,-0.191723,0.831792,0.134023,0.077604,-9.571453,359.6674052113109,358.28173544524435,159.26840877591798,0.001388750016,0.0013961250176,0.0121513750016,0.1799534987392,0.014227124544,-0.0055528744576,0.98355625024,0.001388750016,0.0013961250176,0.0121513750016,2.505955,0.0,0.0,-0.01750215578368,0.0,0.0,0.0877189915263999,0.0,0.0,0.0,20.117272938125492
2023-09-08 15:55:13.240,0.049785,-0.037365,0.087795,0.086996,0.087019,0.069565,48.359251,-4.557269,50.066625,50.788002,0.605778,0.604845,0.59082,0.045042,-0.046759,-9.657707,-0.012297,-0.018179,-0.038953,33.255219,0.056382,-0.041616,-9.615028,-0.0135,-0.017836,-0.039084,-0.4226618566655999,-0.1871888556544,0.8208449532927999,0.115072294144,0.0269960340736,-9.5736482593664,359.6558242524649,358.2669745570678,159.23413859157787,0.001385,0.001392,0.012151,0.180249,0.014334,-0.00568,0.9835,0.001385,0.001392,0.012151,2.505955,0.0,0.0,-0.0161466,0.0,0.0,0.089705,0.0,0.0,0.0,20.083002753785397
2023-09-08 15:55:13.265,0.0416206459008,-0.0314487651456,0.0918112397184,0.087314749184,0.0873371241856,0.0697312495744,48.3592516249984,-4.557269,50.0644206306432,50.788002,0.6068811221760001,0.605944997184,0.59171062272,0.0853675217664,-0.0546002299264,-9.6247783342976,-0.01146887712,-0.013160262848,-0.0386767507071999,33.254725251264,0.0875331702528,-0.0518084739072,-9.6205698608128,-0.0128787515904,-0.012482888704,-0.0385915012608,-0.4155,-0.179632,0.8026,0.083488,-0.05735,-9.577307,359.6382058453679,358.25469180577863,159.1762341926431,0.0013862499968,0.0013938749952,0.0121497500032,0.1807483737216,0.0144089998079999,-0.0058574995456,0.98340625024,0.0013862499968,0.0013938749952,0.0121497500032,2.505955,0.0,0.0,-0.01388735578368,0.0,0.0,0.0930149915264,0.0,0.0,0.0,20.025098354850627
2023-09-08 15:55:13.280,0.036722,-0.027899,0.094221,0.087506,0.087528,0.069831,48.359252,-4.557269,50.063098,50.788002,0.607543,0.606605,0.592245,0.109563,-0.059305,-9.605021,-0.010972,-0.010149,-0.038511,33.254429,0.106224,-0.057924,-9.623895,-0.012506,-0.009271,-0.038296,-0.4082407190272,-0.17647261152,0.8050198853248,0.2330978883327999,-0.0762418306048,-9.5938606956288,359.6276347289445,358.24732210469483,159.14149131610523,0.001387,0.001395,0.012149,0.181048,0.014454,-0.005964,0.98335,0.001387,0.001395,0.012149,2.505955,0.0,0.0,-0.0125318,0.0,0.0,0.095001,0.0,0.0,0.0,19.99035547831275
2023-09-08 15:55:13.305,0.0263064016639999,-0.0214246415744,0.0961103701632,0.087824749184,0.0878473741824,0.0699972495744,48.359252,-4.557269,50.060804255872,50.788002,0.6086579971456,0.6077156221568,0.593141872704,0.1477079023488,-0.0483819029631999,-9.6372184175744,-0.0116288733184,-0.0063971346048,-0.0379022515584,33.2544002500736,0.1605663608832,-0.0442059101184,-9.6745373703552,-0.0113703779072,-0.0057978838911999,-0.0377341264384,-0.396142,-0.171207,0.809053,0.482446,-0.107728,-9.62145,359.6125946253251,358.2429533126911,159.0855922643197,0.0013888749952,0.0013968749951999,0.0121483750016,0.1815298737664,0.0144646249727999,-0.0061071246336,0.9832600002304,0.0013888749952,0.0013968749951999,0.0121483750016,2.505955,0.0,0.0,-0.0102725557836799,0.0,0.0,0.0983109915264,0.0,0.0,0.0,19.93445642652722
2023-09-08 15:55:13.320,0.020057,-0.01754,0.097244,0.088016,0.088039,0.070097,48.359252,-4.557269,50.059428,50.788002,0.609327,0.608382,0.59368,0.170595,-0.041828,-9.656537,-0.012023,-0.004146,-0.037537,33.254383,0.193172,-0.035975,-9.704923,-0.010689,-0.003714,-0.037397,-0.4138132003968,-0.1692686167296,0.815103650816,0.5555210617856,-0.041733343424,-9.338471917632,359.603570501549,358.24033201959423,159.05205260428528,0.00139,0.001398,0.012148,0.181819,0.014471,-0.006193,0.983206,0.00139,0.001398,0.012148,2.505955,0.0,0.0,-0.008917,0.0,0.0,0.100297,0.0,0.0,0.0,19.9009167664928
2023-09-08 15:55:13.345,-0.0023204427136,-0.0058512799232,0.1032796095488,0.0883353741823999,0.0883583741824,0.070262624576,48.359252,-4.557269,50.0570898809856,50.788002,0.6104532471168,0.609503872128,0.5945824976896,0.5002254061439999,-0.0406767529472,-9.584074685504,-0.0073192620416,0.0023396083968,-0.0368232518272,33.2544261248896,0.52220240768,-0.0437049802112,-9.5966101522816,-0.0059440121472,0.002954732928,-0.0367763765888,-0.443265,-0.166038,0.825188,0.677312,0.068257,-8.866845,359.59938075839784,358.2512539996036,158.9991973829942,0.0013918749951999,0.0013992499968,0.0121517499904,0.1822727488384,0.0143672502656,-0.006217999936,0.9831235002112,0.0013918749951999,0.0013992499968,0.0121517499904,2.505955,0.0,0.0,-0.0065335061017599,0.0,0.0,0.10325274243328,0.0,0.0,0.0,19.84806154520172
2023-09-08 15:55:13.360,-0.015747,0.001162,0.106901,0.088527,0.08855,0.070362,48.359252,-4.557269,50.055687,50.788002,0.611129,0.610177,0.595124,0.698005,-0.039986,-9.540597,-0.004497,0.006231,-0.036395,33.254452,0.719622,-0.048343,-9.531622,-0.003097,0.006956,-0.036404,-0.4294675661312,-0.17243177728,0.81188481824,0.6979862132096,-0.0391580833024,-9.1836306016128,359.59686689534595,358.2578072323457,158.967484033724,0.001393,0.0014,0.012154,0.182545,0.014305,-0.006233,0.983074,0.001393,0.0014,0.012154,2.505955,0.0,0.0,-0.0051034,0.0,0.0,0.1050262,0.0,0.0,0.0,19.81634819593151
2023-09-08 15:55:13.385,-0.0372144450432,0.0129257198848,0.1103153662592,0.0888476241791999,0.0888706241792,0.0705269995775999,48.359252,-4.557269,50.0532445062528,50.788002,0.612266497088,0.6113107470975999,0.596033372672,0.6879350257792,-0.0520415941376,-9.615478058304,-0.0003645105792,0.0168084729216,-0.0366487493504,33.2544663749632,0.7010689224960001,-0.0605985936255999,-9.5920399703296,-0.0014670041727999,0.0174847230464,-0.0366952492544,-0.406472,-0.183088,0.789713,0.732443,-0.218182,-9.711603,359.5964013683292,358.2928649976872,158.91312480207094,0.0013948749952,0.0014018749951999,0.0121527500032,0.1830112488064,0.0140012507776,-0.0061880001152,0.9829915002112,0.0013948749952,0.0014018749951999,0.0121527500032,2.505955,0.0,0.0,-0.00271990610176,0.0,0.0,0.1079819424332799,0.0,0.0,0.0,19.76198896427846
2023-09-08 15:55:13.400,-0.050095,0.019984,0.112364,0.08904,0.089063,0.070626,48.359252,-4.557269,50.051779,50.788002,0.612949,0.611991,0.596579,0.681893,-0.059275,-9.660407,0.002115,0.023155,-0.036801,33.254475,0.689937,-0.067952,-9.628291,-0.000489,0.023802,-0.03687,-0.4113702708992,-0.1805162390272,0.7871108638976,0.703862253056,-0.1892577515903999,-9.7529311763328,359.5961220502123,358.313899800489,158.8805090404231,0.001396,0.001403,0.012152,0.183291,0.013819,-0.006161,0.982942,0.001396,0.001403,0.012152,2.505955,0.0,0.0,-0.0012898,0.0,0.0,0.1097554,0.0,0.0,0.0,19.729373202630622
2023-09-08 15:55:13.420,-0.066107,0.0288845,0.1125365,0.0878559999999999,0.087882,0.0699105,48.359252,-4.557269,50.049861,50.7875025,0.599587,0.598687,0.5845944999999999,0.678536,-0.0633495,-9.672735,0.003499,0.0294489999999999,-0.0360985,33.2546675,0.6786215,-0.0623424999999999,-9.6628225,0.0034915,0.0304709999999999,-0.035937,-0.4179012708992,-0.1770872390272,0.7836413638976,0.6657547530560001,-0.1506922515904,-9.8080351763328,359.60463047347,358.3575018886985,158.8385398819298,0.0013915,0.0013985,0.0121509999999999,0.1836495,0.013456,-0.006023,0.982881,0.0013915,0.0013985,0.0121509999999999,2.505955,0.0,0.0,0.000617,0.0,0.0,0.11212,0.0,0.0,0.0,19.68740404413731
2023-09-08 15:55:13.425,-0.0701099487616,0.0311095965184,0.112579624448,0.0875600037888,0.0875867537792,0.0697316272896,48.359252,-4.557269,50.0493815061376,50.7873776265984,0.5962465427583999,0.5953610425728,0.5815984133504,0.6776967607423999,-0.0643681119616,-9.6758169605504,0.0038449955712,0.0310224798591999,-0.035922877248,33.254715624384,0.6757926612096,-0.0609401429504,-9.6714552644992,0.0044866122624,0.0321382286592,-0.0357037529856,-0.419534,-0.17623,0.782774,0.656228,-0.141051,-9.821811,359.60675755205745,358.36840227122417,158.82804772660776,0.0013903750144,0.0013973750144,0.0121507500032,0.1837391238528,0.0133652511616,-0.0059885004415999,0.9828657501952,0.0013903750144,0.0013973750144,0.0121507500032,2.505955,0.0,0.0,0.00108189404928,0.0,0.0,0.11176902949248,0.0,0.0,0.0,19.676911888815283
2023-09-08 15:55:13.440,-0.082119,0.037785,0.112709,0.086672,0.086701,0.069195,48.359252,-4.557269,50.047943,50.787003,0.586225,0.585383,0.57261,0.675179,-0.067424,-9.685063,0.004883,0.035743,-0.035396,33.25486,0.667306,-0.056733,-9.697354,0.007472,0.03714,-0.035004,-0.4204561289344,-0.1797238899072,0.78889590112,0.6501120989056001,-0.1371427333248,-9.9519058050688,359.61313889672766,358.4011039769079,158.79657072343647,0.001387,0.001394,0.01215,0.184008,0.013093,-0.005885,0.98282,0.001387,0.001394,0.01215,2.505955,0.0,0.0,0.0024766,0.0,0.0,0.1107161,0.0,0.0,0.0,19.645434885643997
2023-09-08 15:55:13.465,-0.1012545760128,0.0525718371456,0.1123727508608,0.086993874176,0.0870253741696,0.0693624995712,48.359252,-4.557269,50.0454880062848,50.787003,0.587296872256,0.5864511222655999,0.5734749977856,0.6675865194368,-0.1371063216128,-9.7162779200896,0.0062473715072,0.0438748541823999,-0.0257497746944,33.2549718747136,0.6698878683903999,-0.1512133831296,-9.6993871197952,0.0089951211008,0.0461974768127999,-0.0243502772736,-0.421993,-0.185547,0.799099,0.639919,-0.130629,-10.168729,359.62667498998513,358.476232875464,158.76863910242898,0.0013888749952,0.0013958749952,0.0121487500032,0.184245499392,0.0124692515968,-0.0056512505984,0.9827850000896,0.0013888749952,0.0013958749952,0.0121487500032,2.505955,0.0,0.0,0.00480109404928,0.0,0.0,0.10896122949248,0.0,0.0,0.0,19.617503264636497
2023-09-08 15:55:13.480,-0.112736,0.061444,0.112171,0.087187,0.08722,0.069463,48.359252,-4.557269,50.044015,50.787003,0.58794,0.587092,0.573994,0.663031,-0.178916,-9.735007,0.007066,0.048754,-0.019962,33.255039,0.671437,-0.207902,-9.700607,0.009909,0.051632,-0.017958,-0.4294079066368,-0.1805107285119999,0.7936918519296,0.681894804096,-0.1257749792896,-9.9948553831424,359.6347967013836,358.5213105223264,158.75188001541625,0.00139,0.001397,0.012148,0.184388,0.012095,-0.005511,0.982764,0.00139,0.001397,0.012148,2.505955,0.0,0.0,0.0061958,0.0,0.0,0.1079083,0.0,0.0,0.0,19.600744177623767
2023-09-08 15:55:13.505,-0.1322807937152,0.0711961625344,0.1078619485312,0.0871429376128,0.0871789063552,0.0694437812992,48.3592518437504,-4.557269,50.0446549983616,50.787003,0.5884145300352001,0.5875641862912,0.5744824362496,0.7504689011584,-0.2263152536576,-9.7201457880448,0.003772258432,0.0573552279808,0.0020060687615999,33.254889000384,0.7585455270015999,-0.2474650237184,-9.752859991232,0.0034727664768,0.0579976087039999,0.0047550668544,-0.441766,-0.172117,0.78468,0.751854,-0.117685,-9.705068,359.6322542076765,358.6113362854198,158.77529960533792,0.0013918749951999,0.0013988749952,0.012144875008,0.1841867505152,0.011320001984,-0.00538600032,0.9828114998784,0.0013918749951999,0.0013988749952,0.012144875008,2.505955,0.0,0.0,0.00852029404928,0.0,0.0,0.10615342949248,0.0,0.0,0.0,19.62416376754544
2023-09-08 15:55:13.520,-0.14400775,0.0770474999999999,0.1052765,0.0871165,0.08715425,0.06943225,48.35925175,-4.557269,50.045039,50.787003,0.58869925,0.5878475,0.5747755,0.802932,-0.254755,-9.711229,0.001796,0.062516,0.015187,33.254799,0.810811,-0.271203,-9.784212,-0.000389,0.061817,0.018383,-0.4399721173461333,-0.1725625019008,0.7799849799680001,0.760664662592,-0.1050071959082666,-9.814106340228268,359.6307287010382,358.6653521120223,158.7893514552178,0.001393,0.0014,0.012143,0.184066,0.010855,-0.005311,0.98284,0.001393,0.0014,0.012143,2.505955,0.0,0.0,0.009915,0.0,0.0,0.1051005,0.0,0.0,0.0,19.63821561742532
2023-09-08 15:55:13.620,-0.2221871249999999,0.11605625,0.08804025,0.08694025,0.086989875,0.069355375,48.359251125,-4.557269,50.047599,50.787003,0.590597375,0.5897362500000001,0.57672925,0.7247203333333333,-0.1680541666666666,-9.963533166666666,-0.0243448333333333,0.0861685,0.1029786666666666,33.254039,0.6923635,-0.1600613333333333,-9.900293666666666,-0.0240723333333333,0.0868986666666666,0.1054613333333333,-0.4280129506794666,-0.1755325019008,0.748684979968,0.819402162592,-0.0204888625749333,-10.541025506894933,359.5014789717533,359.1669289151764,159.28944811740115,0.0013896666666666,0.0013966666666666,0.012128,0.1797743333333333,0.00637,-0.0055901666666666,0.9836675,0.0013896666666666,0.0013966666666666,0.012128,2.505955,0.0,0.0,0.019213,0.0,0.0,0.098081,0.0,0.0,0.0,20.13831227960867
2023-09-08 15:55:13.625,-0.2260960437152,0.1180066625344,0.0871784485312,0.0869314376127999,0.0869816563552,0.0693515312991999,48.3592510937504,-4.557269,50.0477269983616,50.787003,0.5906922800352,0.5898306862912001,0.5768269362496,0.7208098000554667,-0.1637191804885333,-9.976148213525333,-0.0256518582698666,0.0873511098624,0.1073681938133333,33.2540010004864,0.6864412008064,-0.1545043211306667,-9.906097675707734,-0.0252564848426666,0.0881527339477333,0.1098151942698666,-0.427415,-0.175681,0.74712,0.822339,-0.016263,-10.577371,359.49501656800885,359.1920074343249,159.31445263044847,0.0013895000021333,0.0013965000021333,0.0121272500096,0.1795597527466666,0.0061457528703999,-0.0056041248213333,0.9837088744704,0.0013895000021333,0.0013965000021333,0.0121272500096,2.50596094992384,0.0,0.0,0.01953834583552,0.0,0.0,0.09630582272256,0.0,0.0,0.0,20.16331679265599
2023-09-08 15:55:13.640,-0.237823,0.123858,0.084593,0.086905,0.086957,0.06934,48.359251,-4.557269,50.048111,50.787003,0.590977,0.590114,0.57712,0.709078,-0.150714,-10.013994,-0.029573,0.090899,0.120537,33.253887,0.668674,-0.137833,-9.92351,-0.028809,0.091915,0.122877,-0.4356155349888,-0.1776621334528,0.7508377658624,0.8639754276480001,-0.0461660025856,-10.1621388533504,359.4756290258963,359.2672442758072,159.38946744983784,0.001389,0.001396,0.012125,0.178916,0.005473,-0.005646,0.983833,0.001389,0.001396,0.012125,2.5059788000000003,0.0,0.0,0.0205144,0.0,0.0,0.0909802,0.0,0.0,0.0,20.23833161204536
2023-09-08 15:55:13.665,-0.2607710662528,0.130098609024,0.0701905368704,0.08723312416,0.087288249152,0.0695081245696,48.359251,-4.557269,50.0462635047296,50.787003,0.5920563722368,0.5911896222464,0.5779906227712001,0.7735490849536,-0.1494933781247999,-10.0222671038208,-0.0287767520384,0.0895158785408,0.141386946624,33.253112001984,0.7851180769024,-0.146511102784,-10.1356419569408,-0.0299696220288,0.0886812582784,0.1440575707776,-0.449283,-0.180964,0.757034,0.933369,-0.096004,-9.47009,359.4278587920194,359.3950135370312,159.61112992937166,0.0013908749952,0.0013972499968,0.0121206250112,0.1770097548799999,0.0043130029696,-0.0058497494784,0.9841804991104,0.0013908749952,0.0013972499968,0.0121206250112,2.5060085499238403,0.0,0.0,0.02214114583552,0.0,0.0,0.08210422272256,0.0,0.0,0.0,20.459994091579176
2023-09-08 15:55:13.680,-0.27454,0.133843,0.061549,0.08743,0.087487,0.069609,48.359251,-4.557269,50.045155,50.787003,0.592704,0.591835,0.578513,0.812232,-0.148761,-10.027231,-0.028299,0.088686,0.153897,33.252647,0.854985,-0.151718,-10.262922,-0.030666,0.086741,0.156766,-0.4499385027968,-0.1761831046016,0.7419690607232,0.9539854629632,-0.178974979008,-9.52205584672,359.39919645602583,359.4716756171099,159.7441283250238,0.001392,0.001398,0.012118,0.175866,0.003617,-0.005972,0.984389,0.001392,0.001398,0.012118,2.5060264,0.0,0.0,0.0231172,0.0,0.0,0.0767786,0.0,0.0,0.0,20.592992487231328
2023-09-08 15:55:13.705,-0.2979561900544,0.1387446541184,0.0519669411967999,0.087764374144,0.0878255407999999,0.0697760829056,48.359251,-4.557269,50.043880003264,50.787003,0.5938064971776,0.5929337471872,0.5793963310720001,0.8883918050304,-0.1363441567872,-10.10013706336,-0.0279696258432,0.084848509824,0.1757825689728,33.2526832499072,0.9098529845376,-0.1220449509632,-10.1065305253632,-0.0291697538304,0.083612883008,0.1783603197184,-0.451031,-0.168215,0.716861,0.988346,-0.317259,-9.608665,359.3552936773653,359.5931065489514,160.01517247810807,0.0013938749952,0.0013998749951999,0.0121136250112,0.1735328809728,0.0025213778048,-0.0061582495232,0.9848033739392,0.0013938749952,0.0013998749951999,0.0121136250112,2.50605614992384,0.0,0.0,0.02474394583552,0.0,0.0,0.06790262272256,0.0,0.0,0.0,20.86403664031559
2023-09-08 15:55:13.720,-0.312006,0.1416856666666666,0.0462176666666666,0.087965,0.0880286666666666,0.0698763333333333,48.359251,-4.557269,50.043115,50.787003,0.594468,0.593593,0.5799263333333333,0.934088,-0.128894,-10.143881,-0.027772,0.082546,0.188914,33.252705,0.942774,-0.104241,-10.012695,-0.028272,0.081736,0.191317,-0.4546636404992,-0.16862750176,0.715655369856,1.0017005569792,-0.2292680620736,-9.6055491117056,359.3289518303428,359.6659656054387,160.1778000801583,0.001395,0.001401,0.012111,0.172133,0.001864,-0.00627,0.985052,0.001395,0.001401,0.012111,2.506074,0.0,0.0,0.02572,0.0,0.0,0.062577,0.0,0.0,0.0,21.026664242365825
2023-09-08 15:55:13.785,-0.3728881900544,0.1544299874517333,0.0213042745301333,0.088834374144,0.0889088741333333,0.0703107495722666,48.359251,-4.557269,50.039800003264,50.787003,0.5973344971776,0.5964497471872,0.5822229977386666,0.9238196351104,-0.0642981469354666,-10.163027814481069,-0.0138495553749333,0.0660928912,0.2400424079914666,33.252760791611735,0.93497400768,-0.0555961312298666,-10.0839300548608,-0.0150818879872,0.0659020155904,0.2422021998975999,-0.470405,-0.170415,0.710431,1.05957,0.152024,-9.592047,359.2749971640972,359.9247059289874,161.06895985232322,0.001399062496,0.0014058749952,0.0121053125056,0.1644532575616,-0.0003923102783999,-0.0063528749184,0.9863568737152,0.001399062496,0.0014058749952,0.0121053125056,2.50615134992384,0.0,0.0,0.02994954583552,0.0,0.0,0.03949942272256,0.0,0.0,0.0,21.917824014530737
2023-09-08 15:55:13.800,-0.386938,0.157371,0.015555,0.089035,0.089112,0.070411,48.359251,-4.557269,50.039035,50.787003,0.597996,0.597109,0.582753,0.92145,-0.0493913333333333,-10.167446333333332,-0.0106366666666666,0.062296,0.2518413333333333,33.25277366666667,0.933174,-0.0443703333333333,-10.100369,-0.012038,0.062248,0.253945,-0.4646011002368,-0.1648222261376,0.7069281100544,1.0272418620672,0.1321706652928,-9.5405810304128,359.2625460218871,359.98441554797245,161.27461318737727,0.0014,0.001407,0.012104,0.162681,-0.000913,-0.006372,0.986658,0.0014,0.001407,0.012104,2.5061692,0.0,0.0,0.0309255999999999,0.0,0.0,0.0341738,0.0,0.0,0.0,22.12347734958479
2023-09-08 15:55:13.820,-0.4021825,0.15588,0.009347,0.0884375,0.088519,0.0701125,48.359251,-4.557269,50.043345,50.787003,0.597416,0.5965294999999999,0.5825495,0.9182905,-0.0295156666666666,-10.173337666666669,-0.0063528333333333,0.0572335,0.2675731666666666,33.252790833333336,0.930774,-0.0294026666666666,-10.1222875,-0.0079795,0.0573759999999999,0.269602,-0.4568626002368,-0.1573652261376,0.7022576100544,0.9841378620672,0.1056996652928,-9.4719600304128,359.2585066694314,180.05182403256958,161.60068346858623,0.001397,0.0014039999999999,0.0121005,0.1598685,-0.0014815,-0.006317,0.987113,0.001397,0.0014039999999999,0.0121005,2.506193,0.0,0.0,0.032227,0.0,0.0,0.027073,0.0,0.0,0.0,22.449547630793745
2023-09-08 15:55:13.825,-0.4059935762176,0.1555072547712,0.0077950198656,0.088288126912,0.0883707518976,0.0700378759552,48.359251,-4.557269,50.044422486208,50.787003,0.597271001856,0.5963846268544,0.5824986256512,0.9175006351104,-0.0245468136021333,-10.174810481147732,-0.0052818887082666,0.0559678912,0.2715060746581333,33.25279512494507,0.93017400768,-0.0256607978965333,-10.1277670548608,-0.0069648879872,0.0561580155904,0.2735161998976,-0.454928,-0.155501,0.70109,0.973362,0.099082,-9.454805,359.25749684424346,135.06925193801172,161.68219999546358,0.0013962500096,0.0014032500096,0.0120996250112,0.159165384,-0.0016236231808,-0.006303250176,0.987226748544,0.0013962500096,0.0014032500096,0.0120996250112,2.506193,0.0,0.0,0.03224507476864,0.0,0.0,0.02544422084864,0.0,0.0,0.0,22.531064157671096
2023-09-08 15:55:13.840,-0.417427,0.154389,0.003139,0.08784,0.087926,0.069814,48.359251,-4.557269,50.047655,50.787003,0.596836,0.59595,0.582346,0.915131,-0.00964,-10.179229,-0.002069,0.052171,0.283305,33.252808,0.928374,-0.014435,-10.144206,-0.003921,0.052504,0.285259,-0.453682994688,-0.1532296153088,0.7025045060352,0.9390152284544,0.0400559981568,-9.612251296768,359.25446731697576,0.1192325171667243,161.92675374979518,0.001394,0.001401,0.012097,0.157056,-0.00205,-0.006262,0.987568,0.001394,0.001401,0.012097,2.506193,0.0,0.0,0.0322992999999999,0.0,0.0,0.0205578,0.0,0.0,0.0,22.7756179120027
2023-09-08 15:55:13.865,-0.4355982034816,0.1543483751039999,-0.0057228523135999,0.0881787491328,0.0882722491136,0.0699821245696,48.359251,-4.557269,50.0473418758016,50.787003,0.597935997184,0.597046872192,0.5832297477376,0.8437605577088,0.0235924149247999,-10.2349794822784,0.0050016068992,0.0472953874816,0.2992824590976,33.252388001075204,0.8277880075008,0.0221430313599999,-10.2171483132672,0.0042277291392,0.0474990128128,0.3010689595264,-0.451608,-0.149444,0.704862,0.881771,-0.05832,-9.87466,359.26750207344594,0.189956813948522,162.37004289909234,0.0013952499968,0.0014028749952,0.0120945000064,0.1532297597952,-0.002618748544,-0.0060638755072,0.9881642484736,0.0013952499968,0.0014028749952,0.0120945000064,2.506193,0.0,0.0,0.03238967476864,0.0,0.0,0.01241382084864,0.0,0.0,0.0,23.21890706129986
2023-09-08 15:55:13.880,-0.446501,0.154324,-0.01104,0.088382,0.08848,0.070083,48.359251,-4.557269,50.047154,50.787003,0.598596,0.597705,0.58376,0.800938,0.043532,-10.26843,0.009244,0.04437,0.308869,33.252136,0.767436,0.04409,-10.260914,0.009117,0.044496,0.310555,-0.4594856586112,-0.1514817586944,0.7161210480384,0.7761975495551999,0.0753856954752,-9.7604750128128,359.27532298071856,0.2323916817050619,162.63601820438765,0.001396,0.001404,0.012093,0.150934,-0.00296,-0.005945,0.988522,0.001396,0.001404,0.012093,2.506193,0.0,0.0,0.0324439,0.0,0.0,0.0075274,0.0,0.0,0.0,23.484882366595173
2023-09-08 15:55:13.905,-0.4474370913536,0.1450526174848,-0.0194234160383999,0.0884285623808,0.0885351561088,0.0701070624384,48.3592508437504,-4.5572691562496,50.0480133728,50.7871590933504,0.5992236546432,0.5983298421504001,0.5843501547391999,0.7477137612544,0.0952343676416,-10.2081820292352,0.0156646085632,0.0408900089088,0.320584595008,33.252548498943995,0.7355660815871999,0.0929536249087999,-10.2127209983744,0.0168351052416,0.0399728865792,0.3220374706048,-0.472615,-0.154878,0.734886,0.600243,0.298227,-9.570168,359.3070146276309,0.2928385743469224,163.10573496433034,0.0013978749952,0.0014052499967999,0.0120905000064,0.146877760384,-0.0034174988288,-0.005607500864,0.9891276234496,0.0013978749952,0.0014052499967999,0.0120905000064,2.506193,0.0,0.0,0.03253427476864,0.0,0.0,-0.00061657915136,0.0,0.0,0.0,23.954599126537858
2023-09-08 15:55:13.920,-0.44799875,0.13948975,-0.0244535,0.0884565,0.08856825,0.0701215,48.35925075,-4.55726925,50.048529,50.78725275,0.59960025,0.59870475,0.5847042499999999,0.715779,0.126256,-10.172033,0.019517,0.038802,0.327614,33.252796,0.716444,0.122272,-10.183805,0.021466,0.037259,0.328927,-0.4699032384298667,-0.1523189890816,0.7427360334933334,0.4970103095424,0.2978222482730667,-9.611086049582934,359.3260297455876,0.3291069575231448,163.38756694426073,0.001399,0.001406,0.012089,0.144444,-0.003692,-0.005405,0.989491,0.001399,0.001406,0.012089,2.506193,0.0,0.0,0.0325885,0.0,0.0,-0.005503,0.0,0.0,0.0,24.236431106468245
2023-09-08 15:55:14.020,-0.451743125,0.102404125,-0.05798725,0.0886427499999999,0.0887888749999999,0.07021775,48.359250125,-4.557269875,50.0519665,50.787877125,0.6021108749999999,0.601204125,0.5870648749999999,-0.0552893333333334,0.2212885,-10.235354666666666,0.0616728333333333,0.0059844999999999,0.3214798333333333,33.2534285,-0.0604493333333332,0.2020861666666666,-10.270470833333333,0.0645401666666666,0.0050031666666666,0.3210753333333333,-0.4518249050965333,-0.1352589890816,0.7950693668266666,-0.1912046904576,0.2951239149397333,-9.883871882916267,359.62797850362153,0.4317618958174172,165.2663433009776,0.0013973333333333,0.0014051666666666,0.0120931666666666,0.1282048333333333,-0.004162,-0.0027383333333333,0.9917076666666668,0.0013973333333333,0.0014051666666666,0.0120931666666666,2.506193,0.0,0.0,0.03295,0.0,0.0,-0.038079,0.0,0.0,0.0,26.11520746318513
2023-09-08 15:55:14.025,-0.4519303413536,0.1005498674847999,-0.0596639160383999,0.0886520623807999,0.0887999061088,0.0702225624384,48.3592500937504,-4.5572699062496,50.0521383728,50.7879083433504,0.6022364046431999,0.6013290921504,0.5871829047392,-0.0938422565162666,0.2260400641792,-10.238520709474132,0.0637805980202666,0.0043436460031999,0.3211731289258667,33.2534601245952,-0.0992935027882666,0.2060768239189333,-10.274804069533866,0.0666938474325333,0.0033903956437333,0.3206827550250666,-0.450921,-0.134406,0.797686,-0.225615,0.294989,-9.897511,359.64307574827603,0.4368945770329704,165.3602809163966,0.0013972500010666,0.0014051250005333,0.0120933749973333,0.1273928853930666,-0.0041854996992,-0.0026050017066666,0.9918184985813332,0.0013972500010666,0.0014051250005333,0.0120933749973333,2.5063075485337603,0.0,0.0,0.0325854879991466,0.0,0.0,-0.03906138742528,0.0,0.0,0.0,26.20914507860411
2023-09-08 15:55:14.040,-0.452492,0.094987,-0.064694,0.08868,0.088833,0.070237,48.35925,-4.55727,50.052654,50.788002,0.602613,0.601704,0.587537,-0.209503,0.240295,-10.248019,0.070104,-0.000579,0.320253,33.253555,-0.215828,0.218049,-10.287804,0.073155,-0.001448,0.319505,-0.4570725262464,-0.1317701137535999,0.793677232896,-0.1735587778944,0.3067389251328,-9.9246708658816,359.68836825522834,0.4522928834762718,165.642098572321,0.001397,0.001405,0.012094,0.124957,-0.004256,-0.002205,0.992151,0.001397,0.001405,0.012094,2.5066512000000003,0.0,0.0,0.0314919333333333,0.0,0.0,-0.0420086,0.0,0.0,0.0,26.490962734528523
2023-09-08 15:55:14.065,-0.4462332660224,0.089555763904,-0.0701552360192,0.0890106241535999,0.089164249152,0.0704038745728,48.35925,-4.55727,50.0539621216512,50.788002,0.6037323721344,0.6028202471424,0.5884326227072,-0.1967167827328,0.2210881741696,-10.2309515436928,0.0797096004096,-0.0075814820736,0.3139892660352,33.2537412495232,-0.1869674488832,0.2140283852928,-10.2095379503616,0.0819874773888,-0.0084086071808,0.3132781409408,-0.467325,-0.127377,0.786996,-0.086799,0.326322,-9.969937,359.8154213210419,0.4372885896273739,166.08363304286254,0.0013988749952,0.0014068749952,0.0120952499968,0.1211370097792,-0.0039853756928,-0.0011356277376,0.9926222487936,0.0013988749952,0.0014068749952,0.0120952499968,2.50722394853376,0.0,0.0,0.0296693546658133,0.0,0.0,-0.04692058742528,0.0,0.0,0.0,26.932497205070064
2023-09-08 15:55:14.080,-0.442478,0.086297,-0.073432,0.089209,0.089363,0.070504,48.35925,-4.55727,50.054747,50.788002,0.604404,0.60349,0.58897,-0.189045,0.209564,-10.220711,0.085473,-0.011783,0.310231,33.253853,-0.169651,0.211616,-10.162578,0.087287,-0.012585,0.309542,-0.4636961095168,-0.1252139907712,0.7882083801728,-0.074272071552,0.2450160280959999,-9.999669001856,359.89165368094075,0.4282859518602903,166.3485555337173,0.0014,0.001408,0.012096,0.118845,-0.003823,-0.000494,0.992905,0.0014,0.001408,0.012096,2.5075676,0.0,0.0,0.0285758,0.0,0.0,-0.0498678,0.0,0.0,0.0,27.197419695924825
2023-09-08 15:55:14.105,-0.4382386358528,0.08083688897792,-0.0765532420096,0.08929787477248,0.08945037477632,0.07055262487552,48.35925,-4.55727,50.05544599821056,50.78787712531968,0.6051278731468801,0.60421099815424,0.5896218733312,-0.098382732096,0.1871303074304,-10.1734623709568,0.0931504803456,-0.0157479898496,0.3032403928959999,33.2542536239744,-0.0930399461248,0.1852704424448,-10.1651979932928,0.0931576099712,-0.0159456163968,0.3024882680576,-0.457648,-0.121609,0.790229,-0.053394,0.109507,-10.049222,135.03238912276555,0.4038636883639936,166.77415465637637,0.0014018749951999,0.0014098749951999,0.0120972499968,0.115160634432,-0.0034717508992,0.0006828719872,0.9933356238976,0.0014018749951999,0.0014098749951999,0.0120972499968,2.50814034853376,0.0,0.0,0.02675322133248,0.0,0.0,-0.05477978742528,0.0,0.0,0.0,27.623018818583887
2023-09-08 15:55:14.120,-0.435695,0.0775608,-0.078426,0.0893511999999999,0.0895028,0.0705818,48.35925,-4.55727,50.0558654,50.7878022,0.6055622,0.6046436,0.590013,-0.043985,0.17367,-10.145113,0.097757,-0.018127,0.299046,33.254494,-0.047073,0.169463,-10.16677,0.09668,-0.017962,0.298256,-0.4567159335232,-0.1176090454336,0.798487472736,-0.0429935181248,0.1250699414016,-10.0475671179392,0.1159093619549655,0.3892102302323682,167.02951587323028,0.001403,0.001411,0.012098,0.11295,-0.003261,0.001389,0.993594,0.001403,0.001411,0.012098,2.508484,0.0,0.0,0.0256596666666666,0.0,0.0,-0.057727,0.0,0.0,0.0,27.8783800354378
2023-09-08 15:55:14.185,-0.4246726358528,0.06336448897792,-0.0865412420096,0.08958227477248,0.08972997477632,0.07070822487552,48.35925,-4.55727,50.05768279821056,50.78747752531968,0.6074442731468801,0.60651819815424,0.5917078733312,0.0010745806335999,0.1673641937088,-10.0421742263552,0.097663562592,-0.0132065048448,0.2843137645056,33.255051374451206,7.307857920000466e-05,0.159810509504,-10.0376338146496,0.0962501879232,-0.0128700675136,0.2836651393664,-0.452677,-0.100276,0.834274,0.002075,0.192509,-10.040396,0.488098798221923,0.3350693528867182,168.08454141345769,0.001407062496,0.0014158749952,0.0121069374912,0.1038045090048,-0.002472875776,0.004541496896,0.994573061536,0.001407062496,0.0014158749952,0.0121069374912,2.50997314853376,0.0,0.0,0.0209209546658133,0.0,0.0,-0.07049818742528,0.0,0.0,0.0,28.933405575665205
2023-09-08 15:55:14.200,-0.422129,0.0600884,-0.088414,0.0896356,0.0897824,0.0707373999999999,48.35925,-4.55727,50.0581022,50.7874026,0.6078786,0.6069508,0.5920989999999999,0.011473,0.165909,-10.018419,0.097642,-0.012071,0.280914,33.25518,0.010953,0.157583,-10.007833,0.096151,-0.011695,0.280298,-0.4570002059456,-0.101228504064,0.8308545479103999,-0.0293021338751999,0.1798108833216,-10.00537553808,0.5739891191620587,0.3225752386586534,168.32801012433526,0.001408,0.001417,0.012109,0.101694,-0.002291,0.005269,0.994799,0.001408,0.001417,0.012109,2.5103168,0.0,0.0,0.0198274,0.0,0.0,-0.0734454,0.0,0.0,0.0,29.176874286542784
2023-09-08 15:55:14.265,-0.4111066358528,0.04589208897792,-0.0965292420096,0.08986667477248,0.09000957477632,0.07086382487552,48.35925,-4.55727,50.05991959821056,50.78707792531968,0.6097606731468801,0.60882539815424,0.5937938733311999,-0.1337969819647999,0.1534988872192,-9.959482745529598,0.0757353965696,-4.194934399999982e-05,0.2703303854208,33.2548176253568,-0.1388344775168,0.154467065568,-9.9563766131648,0.0742655215488,0.000216238272,0.2698443852928,-0.475734,-0.105356,0.816037,-0.165269,0.124786,-9.853621,0.8671784962238845,0.3127991559049247,169.33229313979334,0.0014047500032,0.001412937504,0.0121098124992,0.092975883584,-0.0020196252672,0.0077893725184,0.9956261241856,0.0014047500032,0.001412937504,0.0121098124992,2.51180594853376,0.0,0.0,0.0150886879991466,0.0,0.0,-0.0862165874252799,0.0,0.0,0.0,30.18115730200085
2023-09-08 15:55:14.280,-0.408563,0.042616,-0.098402,0.08992,0.090062,0.070893,48.35925,-4.55727,50.060339,50.787003,0.610195,0.609258,0.594185,-0.167321,0.150635,-9.945882,0.07068,0.002734,0.267888,33.254734,-0.173401,0.153748,-9.944502,0.069215,0.002965,0.267432,-0.4698007246848,-0.0997857262336,0.8155502479232,-0.191511611968,0.1542225005951999,-9.8510661140992,0.9348379385354512,0.3105431249609062,169.564051975771,0.001404,0.001412,0.01211,0.090964,-0.001957,0.008371,0.995817,0.001404,0.001412,0.01211,2.5121496,0.0,0.0,0.0139951333333333,0.0,0.0,-0.0891637999999999,0.0,0.0,0.0,30.412916137978527
2023-09-08 15:55:14.305,-0.4024680156032,0.0351591440896,-0.1023126149888,0.0902456241664,0.0903894991616,0.071058624576,48.3592493750016,-4.55727,50.0630846179712,50.787003,0.611344997056,0.6104036220672,0.5950981226624,-0.1883103212672,0.1468550096767999,-9.9295639167744,0.0606381507072,0.0057027424,0.2641217596416,33.2546958750976,-0.1915903284352,0.1497342602752,-9.9219351827712,0.059896273856,0.0061456168576,0.2636595096576,-0.459912,-0.090502,0.814739,-0.235249,0.203283,-9.846808,1.0132971457500934,0.3169172641138985,169.9352560570065,0.0014058749952,0.0014132499967999,0.0121106249984,0.087739008256,-0.0019807499392,0.0090509982592,0.9960969992832,0.0014058749952,0.0014132499967999,0.0121106249984,2.51272234853376,0.0,0.0,0.0121725546658133,0.0,0.0,-0.09407578742528,0.0,0.0,0.0,30.78412021921403
2023-09-08 15:55:14.320,-0.398811,0.030685,-0.104659,0.090441,0.090586,0.071158,48.359249,-4.55727,50.064732,50.787003,0.612035,0.611091,0.595646,-0.200904,0.144587,-9.919773,0.054613,0.007484,0.261862,33.254673,-0.202504,0.147326,-9.908395,0.054305,0.008054,0.261396,-0.45793386656,-0.0847048502656,0.805508335616,-0.21105202176,0.1648295859328,-9.8334665680768,1.0603729914486144,0.3207417737142348,170.1579800262036,0.001407,0.001414,0.012111,0.085804,-0.001995,0.009459,0.996265,0.001407,0.001414,0.012111,2.513066,0.0,0.0,0.011079,0.0,0.0,-0.097023,0.0,0.0,0.0,31.00684418841112
2023-09-08 15:55:14.345,-0.3921772669824,0.0233993936512,-0.1081908659584,0.090765999168,0.090910999168,0.0713229995776,48.359249,-4.55727,50.067600742656,50.787003,0.6131968720256,0.6122491220352001,0.5965647476479999,-0.2143052156927999,0.1320695320448,-9.8934368174208,0.0451867741312,0.0096771193856,0.2584888836352,33.2548467495552,-0.21278522368,0.1278829247744,-9.8875938032512,0.0436669022335999,0.0098671203584,0.2581422583295999,-0.454637,-0.075043,0.790124,-0.170724,0.100741,-9.811231,1.1145173644785276,0.3306610801489477,170.52463626658275,0.0014088749952,0.0014158749952,0.0121159999872,0.0826177581568,-0.0020731248,0.009930873792,0.9965262493312,0.0014088749952,0.0014158749952,0.0121159999872,2.513066,0.0,0.0,0.0083565069696,0.0,0.0,-0.09990249262848,0.0,0.0,0.0,31.373500428790265
2023-09-08 15:55:14.360,-0.388197,0.019028,-0.11031,0.090961,0.091106,0.071422,48.359249,-4.55727,50.069322,50.787003,0.613894,0.612944,0.597116,-0.222346,0.124559,-9.877635,0.039531,0.010993,0.256465,33.254951,-0.218954,0.116217,-9.875113,0.037284,0.010955,0.25619,-0.4639235396224,-0.0699872284288,0.7969842792704,-0.1733347611392,0.1007695001216,-9.8306189577216,1.147004210072395,0.3366127046393586,170.74463151263805,0.00141,0.001417,0.012119,0.080706,-0.00212,0.010214,0.996683,0.00141,0.001417,0.012119,2.513066,0.0,0.0,0.006723,0.0,0.0,-0.1016302,0.0,0.0,0.0,31.59349567484557
2023-09-08 15:55:14.385,-0.3829557634176,0.0117723935743999,-0.1132343675136,0.091285999168,0.0914297491712,0.0715863745792,48.359249,-4.55727,50.0722276175616,50.787003,0.6150677469952001,0.6141146220032,0.5980416226304001,-0.1831029754624,0.1165696454528,-9.8708437673856,0.0289566520703999,0.011239874368,0.2537768818816,33.255313499071995,-0.1816284705536,0.113726381376,-9.8679492683392,0.0275396499456,0.0111781244288,0.253455632,-0.479401,-0.061561,0.808418,-0.177686,0.100817,-9.862932,1.178874905837357,0.3467826794677285,171.10244273969815,0.0014118749952,0.0014182499967999,0.0121196249984,0.0775941329664,-0.0022193747456,0.0104908742912,0.9969242493824,0.0014118749952,0.0014182499967999,0.0121196249984,2.513066,0.0,0.0,0.0040005069696,0.0,0.0,-0.10450969262848,0.0,0.0,0.0,31.951306901905667
2023-09-08 15:55:14.400,-0.379811,0.007419,-0.114989,0.091481,0.091624,0.071685,48.359249,-4.55727,50.073971,50.787003,0.615772,0.614817,0.598597,-0.159557,0.111776,-9.866769,0.022612,0.011388,0.252164,33.255531,-0.159233,0.112232,-9.863651,0.021693,0.011312,0.251815,-0.4804630045312,-0.0615298748672,0.811536138304,-0.1877555429632,0.101319502144,-9.8315417410688,1.1979974538390383,0.352884706021074,171.31713094153275,0.001413,0.001419,0.01212,0.075727,-0.002279,0.010657,0.997069,0.001413,0.001419,0.01212,2.513066,0.0,0.0,0.0023669999999999,0.0,0.0,-0.1062374,0.0,0.0,0.0,32.16599510374027
2023-09-08 15:55:14.420,-0.3748595,-0.0012069999999999,-0.1133385,0.090319,0.0904595,0.070993,48.359249,-4.55727,50.0613595,50.787003,0.6023115,0.6014139999999999,0.5864644999999999,-0.187747,0.1104855,-9.8389275,0.015174,0.0105364999999999,0.249812,33.2556265,-0.1885775,0.113099,-9.8364245,0.0142455,0.0104215,0.249487,-0.4818790045312,-0.0614883748672,0.815693638304,-0.2011815429632,0.101989502144,-9.7896882410688,1.2077090884665056,0.3589007628699476,171.60045857122498,0.0014085,0.0014145,0.0121195,0.0732625,-0.002352,0.01074,0.997249,0.0014085,0.0014145,0.0121195,2.513066,0.0,0.0,0.000189,0.0,0.0,-0.108541,0.0,0.0,0.0,32.449322733432496
2023-09-08 15:55:14.425,-0.3736216408448,-0.0033634723968,-0.1129258802816,0.0900285037184,0.0901683787264,0.0708200022144,48.359249,-4.55727,50.0582066653568,50.787003,0.5989464180736,0.5980632928895999,0.583431413824,-0.194794409792,0.1101628791296,-9.8319672140928,0.0133145238016,0.0103236277248,0.2492240075264,33.2556503746944,-0.1959135310976,0.1133157472255999,-9.8296179621248,0.012383648832,0.0101988778496,0.2489050074496,-0.482233,-0.061478,0.816733,-0.204538,0.102157,-9.779225,1.2101369660461418,0.3604047578307841,171.6712895719996,0.0014073750144,0.0014133750144,0.0121193750016,0.0726463828864,-0.0023702497664,0.0107607497344,0.997293999424,0.0014073750144,0.0014133750144,0.0121193750016,2.513066,0.0,0.0,-0.0003086186304,0.0,0.0,-0.10813255522816,0.0,0.0,0.0,32.52015373420713
2023-09-08 15:55:14.440,-0.369908,-0.009833,-0.111688,0.089157,0.089295,0.070301,48.359249,-4.55727,50.048748,50.787003,0.588851,0.588011,0.574332,-0.215937,0.109195,-9.811086,0.007736,0.009685,0.24746,33.255722,-0.217922,0.113966,-9.809198,0.006798,0.009531,0.247159,-0.4786033595136,-0.0593149907712,0.8179457551744,-0.1789017656192,0.1088837787008,-9.781638135296,1.217420723093973,0.3649168197188213,171.88378620091717,0.001404,0.00141,0.012119,0.070798,-0.002425,0.010823,0.997429,0.001404,0.00141,0.012119,2.513066,0.0,0.0,-0.0018015,0.0,0.0,-0.1069072,0.0,0.0,0.0,32.73265036312469
2023-09-08 15:55:14.465,-0.3645586386944,-0.0175023553663999,-0.1119304993792,0.0894813741696,0.0896181241728,0.0704672495744,48.359249,-4.55727,50.0515936177152,50.787003,0.5899597471615999,0.5891166221695999,0.575213247744,-0.1835764578431999,0.1120143677824,-9.8031166454016,-0.0002883544575999,0.0072800061568,0.2440787586559999,33.256348873395204,-0.181118969216,0.1129103777024,-9.8024805171968,-0.0011813545728,0.0070166314367999,0.2436415090048,-0.472554,-0.05571,0.819967,-0.136175,0.120095,-9.78566,1.209721622431651,0.3668505473270324,172.2280971444903,0.0014058749952,0.0014112499968,0.0121196249984,0.0677998826752,-0.002478124864,0.0107492501888,0.997635249472,0.0014058749952,0.0014112499968,0.0121196249984,2.513066,0.0,0.0,-0.0042896186304,0.0,0.0,-0.10486495522816,0.0,0.0,0.0,33.076961306697825
2023-09-08 15:55:14.480,-0.361349,-0.022104,-0.112076,0.089676,0.089812,0.070567,48.359249,-4.55727,50.053301,50.787003,0.590625,0.58978,0.575742,-0.16416,0.113706,-9.798335,-0.005103,0.005837,0.24205,33.256725,-0.159037,0.112277,-9.79845,-0.005969,0.005508,0.241531,-0.4738117553663999,-0.054478119744,0.8185644940160001,-0.1648547473664,0.1201865003903999,-9.7618297733248,1.2051021304986604,0.3680107918125277,172.43468512093543,0.001407,0.001412,0.01212,0.066001,-0.00251,0.010705,0.997759,0.001407,0.001412,0.01212,2.513066,0.0,0.0,-0.0057825,0.0,0.0,-0.1036396,0.0,0.0,0.0,33.283549283142946
2023-09-08 15:55:14.505,-0.3552883905152,-0.0296221057535999,-0.1099560054272,0.0900006866688,0.0901348116736,0.0707329370752,48.359249,-4.55727,50.0559628681856,50.787003,0.5917528096128,0.5909040596224,0.5766335602175999,-0.179528710656,0.1157634947328,-9.7716213183872,-0.0126104807807999,0.0022820091008,0.2375762614527999,33.2570518741632,-0.1804875700864,0.1154188669568,-9.769743823488,-0.0136471053439999,0.0018230094335999,0.2369791366528,-0.475908,-0.052425,0.816227,-0.212654,0.120339,-9.722113,1.179713003198258,0.3618515112826699,172.76825313335186,0.0014082499968,0.0014138749952,0.01212,0.0630953824384,-0.0025012500224,0.0104731255935999,0.9979471245184,0.0014082499968,0.0014138749952,0.01212,2.513066,0.0,0.0,-0.0082706186304,0.0,0.0,-0.1015973552281599,0.0,0.0,0.0,33.61711729555938
2023-09-08 15:55:14.520,-0.3516519999999999,-0.034133,-0.108684,0.0901955,0.0903285,0.0708324999999999,48.359249,-4.55727,50.05756,50.787003,0.5924294999999999,0.5915785,0.5771685,-0.18875,0.116998,-9.755593,-0.017115,0.000149,0.234892,33.257248,-0.193358,0.117304,-9.75252,-0.018254,-0.000388,0.234248,-0.4746588696704,-0.0513213702912,0.8176373810176001,-0.1840177528192,0.1191029947264,-9.7153382210944,1.164479422823885,0.3581559177362776,172.9683953070998,0.001409,0.001415,0.01212,0.061352,-0.002496,0.010334,0.99806,0.001409,0.001415,0.01212,2.513066,0.0,0.0,-0.0097635,0.0,0.0,-0.1003719999999999,0.0,0.0,0.0,33.81725946930732
2023-09-08 15:55:14.545,-0.3455913905152,-0.0416511057535999,-0.1065640054272,0.0905201866688,0.0906513116736,0.0709984370752,48.359249,-4.55727,50.0602218681856,50.787003,0.5935573096128001,0.5927025596224,0.5780600602175999,-0.1871075042048,0.1179311226112,-9.7353693017728,-0.0239506075008,-0.0039847394176,0.2302163869696,33.257098000384,-0.1852092708608,0.119513369344,-9.7337131731456,-0.024810233216,-0.0043948647424,0.229619886848,-0.472577,-0.049482,0.819988,-0.136291,0.117043,-9.704047,1.1239069528219727,0.3432948629694694,173.2925095400983,0.0014108749952,0.0014168749952,0.0121249999872,0.0585263822336,-0.0024160002048,0.0099658759424,0.9982306245632,0.0014108749952,0.0014168749952,0.0121249999872,2.513066,0.0,0.0,-0.0122516186304,0.0,0.0,-0.09832975522816,0.0,0.0,0.0,34.14137370230583
2023-09-08 15:55:14.560,-0.341955,-0.046162,-0.105292,0.090715,0.090845,0.071098,48.359249,-4.55727,50.061819,50.787003,0.594234,0.593377,0.578595,-0.186122,0.118491,-9.723235,-0.028052,-0.006465,0.227411,33.257008,-0.18032,0.120839,-9.722429,-0.028744,-0.006799,0.226843,-0.4725818750208,-0.048313870016,0.8199921250176,-0.1550620800896,0.1167819988863999,-9.6842214154112,1.0995633046355628,0.3343781692383484,173.48697940747272,0.001412,0.001418,0.012128,0.056831,-0.002368,0.009745,0.998333,0.001412,0.001418,0.012128,2.513066,0.0,0.0,-0.0137445,0.0,0.0,-0.0971044,0.0,0.0,0.0,34.33584356968024
2023-09-08 15:55:14.585,-0.3365937637248,-0.0524126089984,-0.1013726350336,0.091039999168,0.0911681241728,0.0712629995775999,48.3592483750016,-4.55727,50.064212743872,50.787003,0.5953802470656,0.5945201220736,0.5794968726912,-0.1657301772032,0.1143260106624,-9.7080825387904,-0.0332932365824,-0.01151186208,0.2216778896768,33.2565592511488,-0.167170033664,0.1152990141824,-9.7062027915392,-0.0339002368,-0.0121027364224,0.2209955149696,-0.47259,-0.046367,0.819999,-0.186347,0.116347,-9.651179,1.0468871321970694,0.3080937976748854,173.79594610754023,0.0014138749952,0.0014192499968,0.0121286249984,0.0541360068992,-0.0021892504575999,0.0092681262208,0.9984854996096,0.0014138749952,0.0014192499968,0.0121286249984,2.513066,0.0,0.0,-0.0162326186304,0.0,0.0,-0.09506215522816,0.0,0.0,0.0,34.64481026974775
2023-09-08 15:55:14.600,-0.333377,-0.056163,-0.099021,0.091235,0.091362,0.071362,48.359248,-4.55727,50.065649,50.787003,0.596068,0.595206,0.580038,-0.153495,0.111827,-9.698991,-0.036438,-0.01454,0.218238,33.25629,-0.15928,0.111975,-9.696467,-0.036994,-0.015285,0.217487,-0.4762226404992,-0.047362629248,0.8187907448448,-0.1814412290688,0.1139481147648,-9.643893843916802,1.0152812129718187,0.292323067075746,173.9813273931116,0.001415,0.00142,0.012129,0.052519,-0.002082,0.008982,0.998577,0.001415,0.00142,0.012129,2.513066,0.0,0.0,-0.0177255,0.0,0.0,-0.0938368,0.0,0.0,0.0,34.83019155531912
2023-09-08 15:55:14.620,-0.3291165,-0.062621,-0.0928795,0.090474,0.0905955,0.071001,48.359248,-4.55727,50.059589,50.787003,0.5952785,0.5944165,0.5797270000000001,-0.1789585,0.1102435,-9.674949,-0.03963,-0.0183365,0.213908,33.255947,-0.180477,0.1094924999999999,-9.672303,-0.0401505,-0.01895,0.2132605,-0.4810661404992,-0.048690129248,0.8171797448447999,-0.1749002290688,0.1107496147648,-9.6341803439168,0.9667803356139946,0.2631595153035871,174.2184173287367,0.0014104999999999,0.001416,0.0121285,0.05045,-0.001867,0.0085425,0.998686,0.0014104999999999,0.001416,0.0121285,2.513066,0.0,0.0,-0.019716,0.0,0.0,-0.092203,0.0,0.0,0.0,35.067281490944225
2023-09-08 15:55:14.625,-0.3280513886336,-0.0642354793344,-0.0913441446528,0.0902837524352,0.0904038774528,0.0709107511552,48.359248,-4.55727,50.058074019392,50.787003,0.5950811275264001,0.5942191275264,0.5796492509952,-0.1853242935168,0.1098476300672,-9.6689385769344,-0.0404279897856,-0.0192856128512,0.212825513856,33.2558612510976,-0.1857761821695999,0.1088718829439999,-9.6662620773248,-0.0409396148992,-0.019866238272,0.2122038885248,-0.482277,-0.049022,0.816777,-0.173265,0.10995,-9.631752,0.954655271477346,0.2558687206839131,174.2776890539552,0.0014093750144,0.0014150000128,0.0121283750016,0.0499327566208,-0.001813250688,0.0084326264064,0.9987132496512,0.0014093750144,0.0014150000128,0.0121283750016,2.5131880151048533,0.0,0.0,-0.01992089737728,0.0,0.0,-0.0906725529233066,0.0,0.0,0.0,35.12655321616273
2023-09-08 15:55:14.640,-0.324856,-0.069079,-0.086738,0.089713,0.089829,0.07064,48.359248,-4.55727,50.053529,50.787003,0.594489,0.593627,0.579416,-0.204422,0.10866,-9.650907,-0.042822,-0.022133,0.209578,33.255604,-0.201674,0.10701,-9.648139,-0.043307,-0.022615,0.209034,-0.48222074976,-0.0466977400832,0.8182935064704,-0.169544984128,0.1042094755072,-9.6203980765568,0.9182794582561704,0.2339959635314282,174.45550726436187,0.001406,0.001412,0.012128,0.048381,-0.001652,0.008103,0.998795,0.001406,0.001412,0.012128,2.5135540666666665,0.0,0.0,-0.0205356,0.0,0.0,-0.0860811333333333,0.0,0.0,0.0,35.30437142656939
2023-09-08 15:55:14.665,-0.3200210123776,-0.0737221131136,-0.0806055156991999,0.0900361241728,0.0901496241792,0.0708062495744,48.359248,-4.55727,50.0554171201664,50.787003,0.5956158721152001,0.5947501221247999,0.5803091227136,-0.1698820884224,0.105291258624,-9.6372745348992,-0.0456394927871999,-0.0272104870016,0.2040636391167999,33.2557896245248,-0.170217830528,0.1045175063808,-9.6353240328064,-0.0460744929152,-0.0278424866176,0.2032815147264,-0.482127,-0.042824,0.820821,-0.163345,0.094642,-9.601475,0.8495246988531062,0.1866554469007767,174.73844026125957,0.0014078749952,0.0014132499967999,0.012128,0.0459110063232,-0.0012857509376,0.007481126592,0.9989149996928,0.0014078749952,0.0014132499967999,0.012128,2.5141641484381867,0.0,0.0,-0.02156009737728,0.0,0.0,-0.0784288195899733,0.0,0.0,0.0,35.58730442346709
2023-09-08 15:55:14.680,-0.31712,-0.076508,-0.076926,0.09023,0.090342,0.070906,48.359248,-4.55727,50.05655,50.787003,0.596292,0.595424,0.580845,-0.149158,0.10327,-9.629095,-0.04733,-0.030257,0.200755,33.255901,-0.151344,0.103022,-9.627635,-0.047735,-0.030979,0.19983,-0.4856467650175999,-0.0391711094144,0.8226461327872,-0.1866914746112,0.094687000192,-9.587249314304,0.8082715615910523,0.1582509430151333,174.90820121829472,0.001409,0.001414,0.012128,0.044429,-0.001066,0.007108,0.998987,0.001409,0.001414,0.012128,2.5145302,0.0,0.0,-0.0221748,0.0,0.0,-0.0738374,0.0,0.0,0.0,35.75706538050224
2023-09-08 15:55:14.705,-0.3127970423168,-0.0799359599744,-0.0683388344832,0.0902345312384,0.0903432499968,0.0709174062207999,48.359248,-4.5572701562496,50.0557064084096,50.787003,0.5969057484288001,0.5960352484352,0.5814282797568,-0.1829604134656,0.1021331279104,-9.5988907023232,-0.0498731184896,-0.0351869873792,0.1952406391167999,33.256172874304,-0.1851451634688,0.1024645014272,-9.5961313306496,-0.0500237441408,-0.0357671127424,0.1945525135104,-0.491513,-0.033083,0.825688,-0.225602,0.094762,-9.56354,0.733823048674922,0.1006330222445447,175.17917375183794,0.0014108749952,0.0014158749952,0.012128,0.0420621310592,-0.0006072511744,0.00643612672,0.9990926247296,0.0014108749952,0.0014158749952,0.012128,2.51514028177152,0.0,0.0,-0.02319929737728,0.0,0.0,-0.0661850862566399,0.0,0.0,0.0,36.028037914045456
2023-09-08 15:55:14.720,-0.31020325,-0.08199275,-0.0631864999999999,0.09023725,0.090344,0.07092425,48.359248,-4.55727025,50.05520025,50.787003,0.5972740000000001,0.596402,0.5817782499999999,-0.203242,0.101451,-9.580768,-0.051399,-0.038145,0.191932,33.256336,-0.205426,0.10213,-9.577229,-0.051397,-0.03864,0.191386,-0.4886888629504,-0.0339941288874666,0.8264541282687999,-0.2175967158442666,0.0948410003370666,-9.558025726472533,0.6891536359833542,0.0660620337785839,175.34175838187022,0.001412,0.001417,0.012128,0.040642,-0.000332,0.006033,0.999156,0.001412,0.001417,0.012128,2.515506333333333,0.0,0.0,-0.023814,0.0,0.0,-0.0615936666666666,0.0,0.0,0.0,36.19062254407774
