timestamp,north_vel,east_vel,down_vel,north_vel_dev,east_vel_dev,down_vel_dev,lat,long,alt,undulation,lat_dev,long_dev,alt_dev,accel_x,accel_y,accel_z,gyro_x,gyro_y,gyro_z,temp,delta_vel_x,delta_vel_y,delta_vel_z,delta_angle_x,delta_angle_y,delta_angle_z,mag_x,mag_y,mag_z,accel_x.1,accel_y.1,accel_z.1,roll,pitch,yaw,roll_dev,pitch_dev,yaw_dev,w_quat,x_quat,y_quat,z_quat,roll_dev.1,pitch_dev.1,yaw_dev.1,heave_period,surge_motion,sway_motion,heave_motion,surge_accel,sway_accel,heave_accel,surge_vel,sway_vel,heave_vel,wave_angle
2023-09-08 15:39:03.200,-0.00582,0.006706,0.00098,0.09249,0.092495,0.072836,48.359262,-4.557292,47.365554,50.787003,0.614292,0.613371,0.597499,-0.069705,-0.003934,-9.895293,0.009106,0.017306,0.014993,33.676846,-0.069793,-0.002679,-9.894717,0.00927,0.017458,0.015197,-0.308061,-0.365982,0.797518,-0.073331,0.00443,-9.891292,0.0172460296334377,359.3335927884833,130.27364306201332,0.001446,0.001445,0.011954,0.420445,0.00534,-0.002309,0.907299,0.001446,0.001445,0.011954,2.158363,0.0,0.0,0.022484,0.0,0.0,0.00572,0.0,0.0,0.0,-8.87749277577916
2023-09-08 15:39:03.220,-0.006418,0.0067335,-0.0011265,0.091463,0.0914675,0.072332,48.359262,-4.557292,47.3656045,50.7875025,0.6129825,0.6120650000000001,0.5968465000000001,-0.069705,-0.003934,-9.895293,0.009106,0.017306,0.014993,33.676846,-0.069793,-0.002679,-9.894717,0.00927,0.017458,0.015197,-0.308061,-0.365982,0.797518,-0.073331,0.00443,-9.891292,0.0269003684813921,359.35467763534416,130.29123286632384,0.0014399999999999,0.0014395,0.0119525,0.4203055,0.0052085,-0.0021545,0.907365,0.0014399999999999,0.0014395,0.0119525,2.158363,0.0,0.0,0.022484,0.0,0.0,0.00572,0.0,0.0,0.0,-8.859902971468642
2023-09-08 15:39:03.225,-0.0065674980864,0.006740374912,-0.0016531182591999,0.0912062532864,0.091210628288,0.0722060016128,48.359262,-4.557292,47.3656171248384,50.7876273734016,0.6126551291904,0.6117385041792001,0.596683377088,-0.069705,-0.003934,-9.895293,0.009106,0.017306,0.014993,33.676846,-0.069793,-0.002679,-9.894717,0.00927,0.017458,0.015197,-0.308061,-0.365982,0.797518,-0.073331,0.00443,-9.891292,0.0293139222994963,359.35994877958785,130.2956302611141,0.0014385000192,0.0014381250176,0.0119521250048,0.4202706254464,0.0051756254208,-0.0021158754944,0.9073814997888,0.0014385000192,0.0014381250176,0.0119521250048,2.158363,0.0,0.0,0.02247775008,0.0,0.0,0.0052397561472,0.0,0.0,0.0,-8.855505576678382
2023-09-08 15:39:03.240,-0.007016,0.006761,-0.003233,0.090436,0.09044,0.071828,48.359262,-4.557292,47.365655,50.788002,0.611673,0.610759,0.596194,-0.069705,-0.003934,-9.895293,0.009106,0.017306,0.014993,33.676846,-0.069793,-0.002679,-9.894717,0.00927,0.017458,0.015197,-0.3142631514623999,-0.3691773886336,0.7919687263231999,-0.0738301271295999,0.0010002353664,-9.890671372352,0.0365547073293465,359.37576248220495,130.30882267063436,0.001434,0.001434,0.011951,0.420166,0.005077,-0.002,0.907431,0.001434,0.001434,0.011951,2.158363,0.0,0.0,0.022459,0.0,0.0,0.003799,0.0,0.0,0.0,-8.842313167158125
2023-09-08 15:39:03.265,-0.00726599936,0.0072728736895999,-0.0055967439488,0.0907678741504,0.0907718741504,0.0719973745664,48.359262,-4.557292,47.3657637497216,50.788002,0.6128217470592,0.6119033720704,0.5971202476288,-0.072523742784,-0.0062796189952,-9.8941505029248,0.0104391215872,0.0179822482688,0.0147723755648,33.6769122498304,-0.0719167445632,-0.0055571176319999,-9.8940838766208,0.010616871552,0.0178848739072,0.0148545008768,-0.3246,-0.374503,0.78272,-0.074662,-0.004716,-9.889637,0.0513799523256322,359.40290628826097,130.32973557661947,0.0014358749951999,0.0014358749951999,0.011951,0.420000375424,0.0049170004096,-0.0017818755583999,0.9075084998016,0.0014358749951999,0.0014358749951999,0.011951,2.158363,0.0,0.0,0.02242775008,0.0,0.0,0.0013977561471999,0.0,0.0,0.0,-8.821400261173011
2023-09-08 15:39:03.280,-0.007416,0.00758,-0.007015,0.090967,0.090971,0.072099,48.359262,-4.557292,47.365829,50.788002,0.613511,0.61259,0.597676,-0.074215,-0.007687,-9.893465,0.011239,0.018388,0.01464,33.676952,-0.073191,-0.007284,-9.893704,0.011425,0.018141,0.014649,-0.3241657481472,-0.3710724853632,0.7933111701887999,-0.0697558540672,-0.0079601388416,-9.8903806281728,0.0602751600477626,359.4191926830759,130.34228340587,0.001437,0.001437,0.011951,0.419901,0.004821,-0.001651,0.907555,0.001437,0.001437,0.011951,2.158363,0.0,0.0,0.022409,0.0,0.0,-4.30000000000005e-05,0.0,0.0,0.0,-8.808852431922475
2023-09-08 15:39:03.305,-0.0076428744192,0.0079212491264,-0.0092018694016,0.0912994991488,0.0913034991488,0.0722683745664,48.359262,-4.557292,47.3660502494336,50.788002,0.6146716220288,0.61374624704,0.5986097476096,-0.072318129856,-0.0082501235584,-9.8929575012992,0.012413996992,0.0183392501248,0.0144675004416,33.676770750464,-0.0719991280512,-0.0088489959936,-9.8925021280768,0.0125199971968,0.0183634994304,0.0144071256192,-0.323442,-0.365355,0.810963,-0.061579,-0.013367,-9.89162,0.0776428987511407,359.4468736356897,130.36316050208458,0.0014388749952,0.0014382499968,0.0119503750016,0.4197360004224,0.0046653753984,-0.0014110006144,0.9076331248,0.0014388749952,0.0014382499968,0.0119503750016,2.158363,0.0,0.0,0.02237775008,0.0,0.0,-0.0024442438528,0.0,0.0,0.0,-8.787975335707898
2023-09-08 15:39:03.320,-0.007779,0.008126,-0.010514,0.091499,0.091503,0.07237,48.359262,-4.557292,47.366183,50.788002,0.615368,0.61444,0.59917,-0.07118,-0.008588,-9.892653,0.013119,0.01831,0.014364,33.676662,-0.071284,-0.009788,-9.891781,0.013177,0.018497,0.014262,-0.320318236672,-0.3642701203712,0.8000834535808,-0.0660385190272,-0.0128854979456,-9.8913897490176,0.0880636131116075,359.4634823206395,130.37568684532613,0.00144,0.001439,0.01195,0.419637,0.004572,-0.001267,0.90768,0.00144,0.001439,0.01195,2.158363,0.0,0.0,0.022359,0.0,0.0,-0.003885,0.0,0.0,0.0,-8.775448992466352
2023-09-08 15:39:03.345,-0.0079833744768,0.0082053747968,-0.0127771192064,0.0918321241472,0.0918354991488,0.072538749568,48.359262,-4.557292,47.366492374208,50.788002,0.6165411219968,0.6156081220096,0.6001099975936001,-0.0715512490496,-0.0087542495744,-9.8915461278336,0.0130621251456,0.0184824995584,0.0139377510912,33.67672449984,-0.071868373504,-0.0088773773312,-9.8918734997632,0.01295825056,0.018500124992,0.0138538760448,-0.315112,-0.362462,0.781951,-0.073471,-0.012083,-9.891006,0.104965824798194,359.4911274634828,130.39563288750713,0.0014418749952,0.0014408749951999,0.0119543749888,0.4194788754048,0.0044151254016,-0.0010313756031999,0.9077537498112,0.0014418749952,0.0014408749951999,0.0119543749888,2.158363,0.0,0.0,0.02182575136512,0.0,0.0,-0.00566299544832,0.0,0.0,0.0,-8.755502950285347
2023-09-08 15:39:03.360,-0.008106,0.008253,-0.014135,0.092032,0.092035,0.07264,48.359262,-4.557292,47.366678,50.788002,0.617245,0.616309,0.600674,-0.071774,-0.008854,-9.890882,0.013028,0.018586,0.013682,33.676762,-0.072219,-0.008331,-9.891929,0.012827,0.018502,0.013609,-0.3162362547968,-0.3635881298048,0.7835593818624,-0.0664592200832,-0.01031111744,-9.8857143524224,0.1151072210417823,359.5077146624236,130.40760059451492,0.001443,0.001442,0.011957,0.419384,0.004321,-0.00089,0.907798,0.001443,0.001442,0.011957,2.158363,0.0,0.0,0.0215058,0.0,0.0,-0.0067298,0.0,0.0,0.0,-8.743535243277563
2023-09-08 15:39:03.385,-0.0076676677888,0.0075202935424,-0.0158268706688,0.0918990142293333,0.0919022920064,0.0725599307605333,48.359262,-4.557292,47.3669167493888,50.7879326251776,0.6159152117376,0.6149849061674667,0.5995015724458667,-0.0714508758272,-0.010066496896,-9.8882376317696,0.0117461282816,0.0184653753088,0.0134682505472,33.6770382492928,-0.0713165023104,-0.0104409945984,-9.8884365089408,0.011570753216,0.0185563748608,0.0134727503488,-0.31811,-0.365465,0.78624,-0.054773,-0.007358,-9.876895,0.1291446510865745,359.535503044349,130.42729596830225,0.0014448749952,0.0014438749952,0.0119563750016,0.4192283753983999,0.004152250432,-0.0006762505471999,0.9078711248128,0.0014448749952,0.0014438749952,0.0119563750016,2.158363,0.0,0.0,0.02097255136512,0.0,0.0,-0.00850779544832,0.0,0.0,0.0,-8.723839869490234
2023-09-08 15:39:03.400,-0.0074046666666666,0.0070806666666666,-0.016842,0.0918192222222222,0.0918226666666666,0.0725118888888888,48.359262,-4.557292,47.36706,50.787891,0.6151173333333334,0.6141904444444445,0.5987981111111111,-0.071257,-0.010794,-9.886651,0.010977,0.018393,0.01334,33.677204,-0.070775,-0.011707,-9.886341,0.010817,0.018589,0.013391,-0.31869945564,-0.3650012167712,0.7864812666544,-0.0558530514832,-0.007393625152,-9.8761022466176,0.1375671666109106,359.55217618732576,130.4391132732471,0.001446,0.001445,0.011956,0.419135,0.004051,-0.000548,0.907915,0.001446,0.001445,0.011956,2.158363,0.0,0.0,0.0206526,0.0,0.0,-0.0095746,0.0,0.0,0.0,-8.712022564545379
2023-09-08 15:39:03.705,-0.0020570011221333,-0.0018583731242666,-0.0374828706687999,0.0901967920071111,0.0902036253397333,0.0715350418716444,48.359262,-4.557292,47.3699727493888,50.7870446251776,0.5988938784042667,0.5980364617230223,0.5844944613347555,-0.0681460006527999,-0.017723217296,-9.8696958629328,-0.0162051661712,0.0191907654576,0.0118731409328,33.676713140728005,-0.0687000473104,-0.0176992956176,-9.868274519416,-0.0163079786832,0.019036968656,0.0117535315936,-0.330685,-0.355571,0.791387,-0.077814,-0.008118,-9.859983,0.0107626806910705,359.9166435167956,130.6575533868041,0.0014355156272,0.001435468752,0.0119531406256,0.4174107972367999,0.0006998132031999,-0.0002182188192,0.9087175310816,0.0014355156272,0.001435468752,0.0119531406256,2.158363,0.0,0.0,0.01414695136512,0.0,0.0,-0.03126619544832,0.0,0.0,0.0,-8.493582450988384
2023-09-08 15:39:03.720,-0.001794,-0.002298,-0.038498,0.090117,0.090124,0.071487,48.359262,-4.557292,47.370116,50.787003,0.598096,0.597242,0.583791,-0.067993,-0.018064,-9.868862,-0.017542,0.01923,0.011801,33.676689,-0.068598,-0.017994,-9.867386,-0.017642,0.019059,0.011673,-0.3283539900544,-0.3591732653696,0.7896597426304,-0.0752426140288,-0.0125606439552,-9.8683687857792,0.0045263665815335,359.93456821979606,130.66829639129944,0.001435,0.001435,0.011953,0.417326,0.000535,-0.000202,0.908757,0.001435,0.001435,0.011953,2.158363,0.0,0.0,0.013827,0.0,0.0,-0.032333,0.0,0.0,0.0,-8.482839446493045
2023-09-08 15:39:03.745,-0.0001571291904,-0.0033473723135999,-0.0400836209408,0.0904494991488,0.0904564991488,0.0716576245632,48.359262,-4.557292,47.3710841225216,50.787003,0.5992197471232,0.5983613721344,0.5846984976767999,-0.071139866944,-0.0166252536832,-9.8701938715904,-0.0180388737279999,0.0181431277824,0.011588500544,33.6764933755008,-0.0714317427456,-0.0167427532031999,-9.8702253677312,-0.0181488737024,0.0180665025408,0.0116842499712,-0.324469,-0.365177,0.786781,-0.070957,-0.019965,-9.882345,224.97619779442664,359.9608167815891,130.68541346160916,0.0014368749952,0.0014362499967999,0.0119573749888,0.4171897503487999,0.0002262507904,-0.00032699968,0.90881949984,0.0014368749952,0.0014362499967999,0.0119573749888,2.158363,0.0,0.0,0.012987552148992,0.0,0.0,-0.03211775055104,0.0,0.0,0.0,-8.465722376183322
2023-09-08 15:39:03.760,0.000825,-0.003977,-0.041035,0.090649,0.090656,0.07176,48.359262,-4.557292,47.371665,50.787003,0.599894,0.599033,0.585243,-0.073028,-0.015762,-9.870993,-0.018337,0.017491,0.011461,33.676376,-0.073132,-0.015992,-9.871929,-0.018453,0.017471,0.011691,-0.324341499456,-0.3651987500927999,0.7898035128959999,-0.06867886528,-0.0197426240512,-9.8807816183296,359.9601221374589,359.9765660261792,130.6956837739067,0.001438,0.001437,0.01196,0.417108,4.1e-05,-0.000402,0.908857,0.001438,0.001437,0.01196,2.158363,0.0,0.0,0.01248388,0.0,0.0,-0.0319886,0.0,0.0,0.0,-8.455452063885787
2023-09-08 15:39:03.785,0.0030824942207999,-0.00525162173696,-0.04181774799616,0.09074062476544,0.09074762476544,0.07181024987136,48.359262,-4.557292,47.37216299872512,50.78712787468032,0.60062912311808,0.5997649981260801,0.58590449830656,-0.0741742470656,-0.012299508864,-9.86993050272,-0.0179576259712,0.016181628352,0.0115928746624,33.6764403748352,-0.0738369981952,-0.0121770097664,-9.8704671287424,-0.0178355015808,0.0159828788096,0.0115360003968,-0.324129,-0.365235,0.794841,-0.064882,-0.019372,-9.878176,359.9338019561249,134.99995285000196,130.71133264362498,0.0014398749952,0.0014388749952,0.0119593750016,0.4169842503168,-0.0002358742912,-0.0005276246784,0.9089138748544,0.0014398749952,0.0014388749952,0.0119593750016,2.158363,0.0,0.0,0.011644432148992,0.0,0.0,-0.03177335055104,0.0,0.0,0.0,-8.439803194167496
2023-09-08 15:39:03.800,0.004437,-0.0060164,-0.0422874,0.0907955999999999,0.0908026,0.0718404,48.359262,-4.557292,47.3724618,50.7872028,0.6010702,0.6002042000000001,0.5863014,-0.074862,-0.010222,-9.869293,-0.01773,0.015396,0.011672,33.676479,-0.07426,-0.009888,-9.86959,-0.017465,0.01509,0.011443,-0.3250991291392,-0.366058128512,0.7930252422528,-0.066807164464,-0.0184670273888,-9.8752672063392,359.9180097395168,0.0130634377289827,130.7207220295539,0.001441,0.00144,0.011959,0.41691,-0.000402,-0.000603,0.908948,0.001441,0.00144,0.011959,2.158363,0.0,0.0,0.01114076,0.0,0.0,-0.0316442,0.0,0.0,0.0,-8.43041380823857
2023-09-08 15:39:03.945,0.0175304942208,-0.01340922173696,-0.04682734799616,0.09132702476544,0.09133402476544,0.07213184987136,48.359262,-4.557292,47.37535019872512,50.78792707468032,0.60533392311808,0.60444979812608,0.59013809830656,-0.0802958726016,-0.0034809529753599,-9.84132903734272,-0.00486198067968,0.00216693083904,0.00997332574976,33.6769357497984,-0.08000417246464,-0.00348117782784,-9.84057333780736,-0.0046071306752,0.0019348808064,0.00996327565312,-0.334477,-0.374015,0.775473,-0.085417,-0.009719,-9.847149,359.82599992020243,0.0770860715972443,130.80779904252802,0.001441,0.0014409062496,0.0119626249984,0.4162176253056,-0.0012439058783999,-0.0011005310303999,0.9092633748608,0.001441,0.0014409062496,0.0119626249984,2.158363,0.0,0.0,0.006271952148992,0.0,0.0,-0.03039575055104,0.0,0.0,0.0,-8.343336795264463
2023-09-08 15:39:03.960,0.018885,-0.014174,-0.047297,0.091382,0.091389,0.072162,48.359262,-4.557292,47.375649,50.788002,0.605775,0.604889,0.590535,-0.080858,-0.0027835999999999,-9.8384362,-0.0035307999999999,0.0007984,0.0097976,33.676983,-0.0805984,-0.0028184,-9.8375716,-0.003277,0.000574,0.0098102,-0.3330231187968,-0.3764491353856,0.7814077753216,-0.0876797596544,-0.0074472403072,-9.8366129550464,359.8164816182196,0.0837091338686132,130.81680705179735,0.001441,0.001441,0.011963,0.416146,-0.001331,-0.001152,0.909296,0.001441,0.001441,0.011963,2.158363,0.0,0.0,0.0057682799999999,0.0,0.0,-0.0302666,0.0,0.0,0.0,-8.334328785995126
2023-09-08 15:39:03.985,0.0211804107904,-0.015500038272,-0.0464424188544,0.091276791936,0.0912835836032,0.07211512512,48.359262,-4.557292,47.3758275412096,50.7877938755328,0.6061862489472,0.6052981656192,0.5909945821568,-0.0817948726016,-0.0016213529753599,-9.83361483734272,-0.0013121806796799,-0.0014824691609599,0.00950472574976,33.677061749798405,-0.08158877246464,-0.00171377782784,-9.83256873780736,-0.0010601306751999,-0.0016941191935999,0.00955507565312,-0.3306,-0.380506,0.791299,-0.091451,-0.003661,-9.819053,359.81558637395653,0.0805578740626394,130.82984180826753,0.0014428749952,0.0014428749952,0.0119623750016,0.4160422502656,-0.001309125056,-0.001170749952,0.9093434998784,0.0014428749952,0.0014428749952,0.0119623750016,2.158363,0.0,0.0,0.004928832148992,0.0,0.0,-0.03005135055104,0.0,0.0,0.0,-8.32129402952495
2023-09-08 15:39:04.000,0.0225576666666666,-0.0162956666666666,-0.0459296666666666,0.0912136666666666,0.0912203333333333,0.072087,48.359262,-4.557292,47.375934666666666,50.787669,0.606433,0.6055436666666667,0.5912703333333333,-0.082357,-0.000924,-9.830722,1.9e-05,-0.002851,0.009329,33.677109,-0.082183,-0.001051,-9.829567,0.00027,-0.003055,0.009402,-0.3324268202944,-0.3780829271616,0.7907042474624,-0.0892887407744,-0.0043108777728,-9.817119866752,359.81504922373176,0.078667105271462,130.83766271554012,0.001444,0.001444,0.011962,0.41598,-0.001296,-0.001182,0.909372,0.001444,0.001444,0.011962,2.158363,0.0,0.0,0.0044251599999999,0.0,0.0,-0.0299222,0.0,0.0,0.0,-8.313473122252361
2023-09-08 15:39:04.065,0.0285257441237333,-0.0197433716053333,-0.0437077521877333,0.0909401252693333,0.0909462502698666,0.07196512512,48.359262,-4.557292,47.376398874542936,50.7871278755328,0.6075022489472,0.6066074989525333,0.5924652488234666,-0.083726061152,-0.0060459949568,-9.812838892608,0.0072031179264,-0.0091454313024,0.0084133134016,33.6775241870912,-0.0831815615168,-0.0052946833216,-9.8119650173312,0.0075719303104,-0.0093908687616,0.0085269383616,-0.340343,-0.367583,0.788127,-0.079919,-0.007127,-9.808743,359.83860492789074,0.0484078015099207,130.86917894422714,0.0014391250048,0.0014391250048,0.0119595625024,0.4157305627456,-0.0009693753216,-0.0011056250752,0.9094865623872,0.0014391250048,0.0014391250048,0.0119595625024,2.158363,0.0,0.0,0.0022425921489919,0.0,0.0,-0.02936255055104,0.0,0.0,0.0,-8.281956893565336
2023-09-08 15:39:04.080,0.029903,-0.020539,-0.043195,0.090877,0.090883,0.071937,48.359262,-4.557292,47.376506,50.787003,0.607749,0.606853,0.592741,-0.084042,-0.007228,-9.808712,0.008861,-0.010598,0.008202,33.67762,-0.083412,-0.006274,-9.807903,0.009257,-0.010853,0.008325,-0.3330664689536,-0.3679253764608,0.7905393852928,-0.073662098304,-0.0079261284096,-9.8022603473408,359.8440408881654,0.0414248485879585,130.87645195827048,0.001438,0.001438,0.011959,0.415673,-0.000894,-0.001088,0.909513,0.001438,0.001438,0.011959,2.158363,0.0,0.0,0.0017389199999999,0.0,0.0,-0.0292334,0.0,0.0,0.0,-8.274683879522001
2023-09-08 15:39:04.105,0.0320317445504,-0.0216637887872,-0.0415016710015999,0.0912090824832,0.0912150824832,0.072105749568,48.359262,-4.557292,47.377409122688,50.787003,0.6089089970304,0.6080086220416,0.593671205952,-0.0814757565696,-0.0088948707328,-9.7993707739136,0.0115653680768,-0.0129286190336,0.0079157507328,33.676985626624,-0.0806957569536,-0.0098877407488,-9.7977711509376,0.0119888680063999,-0.0132017439872,0.0078431262336,-0.320939,-0.368496,0.79456,-0.063234,-0.009258,-9.791456,359.8622680613613,0.0216936650300999,130.88841242162496,0.0014398749952,0.0014398749952,0.011959,0.4155786252416,-0.0006715005696,-0.0010148751872,0.909556749888,0.0014398749952,0.0014398749952,0.011959,2.158363,0.0,0.0,0.0008994721489919,0.0,0.0,-0.02901815055104,0.0,0.0,0.0,-8.262723416167518
2023-09-08 15:39:04.120,0.033309,-0.0223386666666666,-0.0404856666666666,0.0914083333333333,0.0914143333333333,0.072207,48.359262,-4.557292,47.377951,50.787003,0.609605,0.608702,0.5942293333333333,-0.079936,-0.009895,-9.793766,0.013188,-0.014327,0.007744,33.676605,-0.079066,-0.012056,-9.791692,0.013628,-0.014611,0.007554,-0.3221273800704,-0.3690275647679999,0.7946597504256,-0.0673582675968,-0.0100918160576,-9.7821529603072,359.8732044399375,0.0098548740762501,130.89558874862783,0.001441,0.001441,0.011959,0.415522,-0.000538,-0.000971,0.909583,0.001441,0.001441,0.011959,2.158363,0.0,0.0,0.0003957999999999,0.0,0.0,-0.028889,0.0,0.0,0.0,-8.25554708916465
2023-09-08 15:39:04.185,0.0388437445503999,-0.0252631221205333,-0.0360830043349333,0.0922717491498666,0.0922777491498666,0.072645749568,48.359262,-4.557292,47.380299122688,50.787003,0.6126209970304,0.6117066220416001,0.5966478726186667,-0.0840464334528,-0.0122609976704,-9.765499152832,0.0181361201279999,-0.0198324945792,0.0070273757056,33.677398811718405,-0.0835558705792,-0.0121201874368,-9.7650802137024,0.0183884328128,-0.0199686197248,0.0068910006528,-0.327277,-0.371331,0.795092,-0.08523,-0.013705,-9.74184,359.9376800333372,292.4399704754247,130.9235669664135,0.0014458749951999,0.001445062496,0.0119638749952,0.4153001877184,0.0002484992255999,-0.000711000256,0.9096837499008,0.0014458749951999,0.001445062496,0.0119638749952,2.158363,0.0,0.0,-0.001786767851008,0.0,0.0,-0.02832935055104,0.0,0.0,0.0,-8.227568871378992
2023-09-08 15:39:04.200,0.040121,-0.025938,-0.035067,0.092471,0.092477,0.072747,48.359262,-4.557292,47.380841,50.787003,0.613317,0.6124,0.597206,-0.084995,-0.012807,-9.758976,0.019278,-0.021103,0.006862,33.677582,-0.084592,-0.012135,-9.758939,0.019487,-0.021205,0.006738,-0.3284867551616,-0.3666011048192,0.7952097505024,-0.0829169901311999,-0.0127821210624,-9.7408721208704,359.9525590945632,359.92419768370416,130.93002351211518,0.001447,0.001446,0.011965,0.415249,0.00043,-0.000651,0.909707,0.001447,0.001446,0.011965,2.158363,0.0,0.0,-0.00229044,0.0,0.0,-0.0282002,0.0,0.0,0.0,-8.221112325677296
2023-09-08 15:39:04.220,0.040994,-0.0269,-0.032615,0.091552,0.091558,0.072299,48.359262,-4.557292,47.378822,50.787003,0.6122205000000001,0.6113065,0.5966830000000001,-0.084014,-0.011724,-9.753587,0.0202695,-0.0226115,0.0067139999999999,33.677475,-0.0843925,-0.0119814999999999,-9.75241,0.020275,-0.022752,0.00669,-0.3300997551616,-0.3602946048192,0.7953667505023999,-0.0798329901311999,-0.0115516210624,-9.7395816208704,359.97587847682496,359.8971827236638,130.93755790712115,0.0014414999999999,0.001441,0.0119635,0.415189,0.000729,-0.000564,0.9097345,0.0014414999999999,0.001441,0.0119635,2.158363,0.0,0.0,-0.002962,0.0,0.0,-0.028028,0.0,0.0,0.0,-8.213577930671335
2023-09-08 15:39:04.225,0.0412122472064,-0.0271404969216,-0.0320020078464,0.0913222529408,0.0913282529408,0.0721870014336,48.359262,-4.557292,47.3783172564608,50.787003,0.6119463785088,0.6110331284992,0.5965522516736,-0.0837687531392,-0.0114532534656,-9.7522397672448,0.0205173718272,-0.0229886201727999,0.0066770004736,33.6774482503424,-0.0843426256384,-0.0119431254912,-9.7507777708928,0.0204719974784,-0.0231387450496,0.0066780001536,-0.330503,-0.358718,0.795406,-0.079062,-0.011244,-9.739259,359.98170824776844,359.8904290701015,130.9394414817626,0.0014401250176,0.001439750016,0.0119631250048,0.415174000192,0.0008037490432,-0.0005422502784,0.909741374912,0.0014401250176,0.001439750016,0.0119631250048,2.158363,0.0,0.0,-0.0030294991359999,0.0,0.0,-0.027449257408,0.0,0.0,0.0,-8.21169435602988
2023-09-08 15:39:04.240,0.041867,-0.027862,-0.030163,0.090633,0.090639,0.071851,48.359262,-4.557292,47.376803,50.787003,0.611124,0.610213,0.59616,-0.083033,-0.010641,-9.748198,0.021261,-0.02412,0.006566,33.677368,-0.084193,-0.011828,-9.745881,0.021063,-0.024299,0.006642,-0.3326900093311999,-0.359813004672,0.8001392701951999,-0.0809452580352,-0.0129270071808,-9.7383803712512,359.9991978590868,359.87016776362333,130.94509230212716,0.001436,0.001436,0.011962,0.415129,0.001028,-0.000477,0.909762,0.001436,0.001436,0.011962,2.158363,0.0,0.0,-0.0032319999999999,0.0,0.0,-0.025713,0.0,0.0,0.0,-8.206043535665316
2023-09-08 15:39:04.265,0.0433682461568,-0.0288832473856,-0.0276267564927999,0.0909629991552,0.0909689991552,0.0720203745664,48.359262,-4.557292,47.3774579983232,50.787003,0.6122696220672,0.6113542470784,0.5970843726336,-0.0850911197312,-0.0139784914559999,-9.7404161449216,0.021435999552,-0.025748120832,0.006497250176,33.6775323745792,-0.086039870272,-0.0140767442432,-9.7398441404544,0.021369249216,-0.0259689957248,0.006435750528,-0.336335,-0.361638,0.808028,-0.084084,-0.015732,-9.736916,135.02935272953832,359.8327107436569,130.9549041792503,0.0014378749952,0.0014378749952,0.011962,0.4150502502016,0.0014323739648,-0.0003776252544,0.9097969999104,0.0014378749952,0.0014378749952,0.011962,2.158363,0.0,0.0,-0.0035694991359999,0.0,0.0,-0.022819257408,0.0,0.0,0.0,-8.196231658542189
2023-09-08 15:39:04.280,0.044269,-0.029496,-0.026105,0.091161,0.091167,0.072122,48.359262,-4.557292,47.377851,50.787003,0.612957,0.612039,0.597639,-0.086326,-0.015981,-9.735747,0.021541,-0.026725,0.006456,33.677631,-0.087148,-0.015426,-9.736222,0.021553,-0.026971,0.006312,-0.3366507513472,-0.362751754752,0.8004675927424,-0.0830973707904,-0.010240101568,-9.7316494775296,0.0465241729646228,359.8102363782527,130.96079134571372,0.001439,0.001439,0.011962,0.415003,0.001675,-0.000318,0.909818,0.001439,0.001439,0.011962,2.158363,0.0,0.0,-0.003772,0.0,0.0,-0.021083,0.0,0.0,0.0,-8.190344492078765
2023-09-08 15:39:04.305,0.0450404563584,-0.0304849558016,-0.0230460494976,0.0914914158208,0.0914974158208,0.0722903329024,48.359262,-4.557292,47.3782751655808,50.787003,0.614126788672,0.6132042053504,0.5985764976,-0.0899091158272,-0.0121985096832,-9.7275520209792,0.0204872526976,-0.0283118709375999,0.006809124096,33.6773022508416,-0.0901286173696,-0.0121797583104,-9.7257651517696,0.0204130029184,-0.0286028708224,0.006833873664,-0.337177,-0.364608,0.787867,-0.081453,-0.001087,-9.722872,0.0734531203974895,359.7690551421519,130.97199980388726,0.0014408749951999,0.0014408749951999,0.0119613750016,0.4149130002304,0.0020993739136,-0.0002530001664,0.9098579998976,0.0014408749951999,0.0014408749951999,0.0119613750016,2.158363,0.0,0.0,-0.004109499136,0.0,0.0,-0.018189257408,0.0,0.0,0.0,-8.179136033905223
2023-09-08 15:39:04.320,0.0455033333333333,-0.0310783333333333,-0.0212106666666666,0.0916896666666666,0.0916956666666666,0.0723913333333333,48.359262,-4.557292,47.378529666666665,50.787003,0.6148286666666667,0.6139033333333334,0.599139,-0.092059,-0.009929,-9.722635,0.019855,-0.029264,0.007021,33.677105,-0.091917,-0.010232,-9.719491,0.019729,-0.029582,0.007147,-0.336484184544,-0.365235190176,0.7900806344448,-0.0839825732928,-0.0033105719871999,-9.718279167904,0.0896105991584607,359.74434623181264,130.97872492470134,0.001442,0.001442,0.011961,0.414859,0.002354,-0.000214,0.909882,0.001442,0.001442,0.011961,2.158363,0.0,0.0,-0.004312,0.0,0.0,-0.016453,0.0,0.0,0.0,-8.172410913091142
2023-09-08 15:39:04.385,0.0475091230250666,-0.0336496224682666,-0.0132573828309333,0.0925487491541333,0.0925547491541333,0.0728289995690666,48.359262,-4.557292,47.37963249891413,50.787003,0.6178701220053333,0.6169328720170666,0.6015764976,-0.0868395051392,-0.0135494964352,-9.7056155792576,0.0146135676607999,-0.0333232460032,0.0074816870464,33.6768385002624,-0.0873028170431999,-0.0133893718912,-9.7045158272448,0.0143811302656,-0.0334884961536,0.007524812128,-0.333482,-0.367953,0.799673,-0.094944,-0.012946,-9.698377,0.1418893655034004,359.6240073083917,131.00735488133725,0.0014468749952,0.0014468749952,0.0119658749952,0.4146282502272,0.0034988113728,-0.0002334999808,0.9099835624,0.0014468749952,0.0014468749952,0.0119658749952,2.158363,0.0,0.0,-0.005189499136,0.0,0.0,-0.008929257408,0.0,0.0,0.0,-8.143780956455231
2023-09-08 15:39:04.400,0.047972,-0.034243,-0.011422,0.092747,0.092753,0.07293,48.359262,-4.557292,47.379887,50.787003,0.618572,0.617632,0.602139,-0.085635,-0.014385,-9.701688,0.013404,-0.03426,0.007588,33.676777,-0.086238,-0.014118,-9.70106,0.013147,-0.03439,0.007612,-0.3346797551104,-0.3655631148032,0.799783625472,-0.0901859796992,-0.0125676233856,-9.6979431231488,0.1539537595516522,359.5962366417713,131.01396182910187,0.001448,0.001448,0.011967,0.414575,0.003763,-0.000238,0.910007,0.001448,0.001448,0.011967,2.158363,0.0,0.0,-0.005392,0.0,0.0,-0.007193,0.0,0.0,0.0,-8.137174008690607
2023-09-08 15:39:04.420,0.048059,-0.0348095,-0.008219,0.0913245,0.091333,0.0720915,48.359262,-4.557292,47.37720349999999,50.787003,0.604528,0.603647,0.5894630000000001,-0.0886079999999999,-0.0176685,-9.6972825,0.0112769999999999,-0.035009,0.0078635,33.677093500000005,-0.088305,-0.0178875,-9.6964685,0.010995,-0.0351309999999999,0.0079535,-0.3362767551104,-0.3623766148032,0.799931125472,-0.0838419796992,-0.0120631233856,-9.6973646231488,0.1630924363839888,359.5560150045532,131.02247025235957,0.001442,0.0014415,0.011965,0.414506,0.0041154999999999,-0.0003105,0.910037,0.001442,0.0014415,0.011965,2.158363,0.0,0.0,-0.005662,0.0,0.0,-0.004878,0.0,0.0,0.0,-8.128665585432913
2023-09-08 15:39:04.425,0.0480807497216,-0.0349511231872,-0.0074182602496,0.0909688795519999,0.090978004544,0.0718818776832,48.359262,-4.557292,47.3765326335872,50.787003,0.6010170449408,0.600150794752,0.5862940405632,-0.0893512404864,-0.0184893644928,-9.6961811390976,0.0107452568064,-0.0351962476032,0.0079323741184,33.677172623987204,-0.0888217433855999,-0.0188298629376,-9.6953206396928,0.0104570068864,-0.0353162476288,0.0080388739072,-0.336676,-0.36158,0.799968,-0.082256,-0.011937,-9.69722,0.1653770763483071,359.5459597239578,131.02459733094705,0.0014405000192,0.0014398750208,0.0119645000064,0.4144887502208,0.004203623872,-0.000328624768,0.910044499904,0.0014405000192,0.0014398750208,0.0119645000064,2.158363,0.0,0.0,-0.00560992566656,0.0,0.0,-0.00421105853696,0.0,0.0,0.0,-8.126538506845435
2023-09-08 15:39:04.440,0.048146,-0.035376,-0.005016,0.089902,0.089913,0.071253,48.359262,-4.557292,47.37452,50.787003,0.590484,0.589662,0.576787,-0.091581,-0.020952,-9.692877,0.00915,-0.035758,0.008139,33.67741,-0.090372,-0.021657,-9.691877,0.008843,-0.035872,0.008295,-0.3342973648512,-0.3605176204672,0.7997684991488,-0.0894575307263999,-0.0118792497536,-9.695952494592,0.1722311132163254,359.51579336733494,131.03097867561726,0.001436,0.001435,0.011963,0.414437,0.004468,-0.000383,0.910067,0.001436,0.001435,0.011963,2.158363,0.0,0.0,-0.0054537,0.0,0.0,-0.0022102,0.0,0.0,0.0,-8.120157162175218
2023-09-08 15:39:04.465,0.0479922503936,-0.0357141241344,-0.0015897587711999,0.0902319991552,0.0902423741568,0.0714236245632,48.3592626249984,-4.557292,47.3745756248576,50.787003,0.5915896221696,0.5907638721792,0.5776801227136,-0.0857866398335999,-0.0180432574464,-9.6901851318912,0.0057268837632,-0.036611122816,0.0087177485184,33.6771000007936,-0.086509509888,-0.018366383424,-9.6903345039488,0.0052611341696,-0.036734497792,0.0088256236416,-0.330333,-0.358747,0.799436,-0.10146,-0.011783,-9.69384,0.1752749437107318,359.46358272191327,131.04505191543257,0.0014378749952,0.0014368749952,0.0119623750016,0.4143238752896,0.0048942489088,-0.0005473745792,0.9101163748736,0.0014378749952,0.0014368749952,0.0119623750016,2.158363,0.0,0.0,-0.00519332566656,0.0,0.0,0.0011245414630399,0.0,0.0,0.0,-8.106083922359915
2023-09-08 15:39:04.480,0.0479,-0.035917,0.000466,0.09043,0.09044,0.071526,48.359263,-4.557292,47.374609,50.787003,0.592253,0.591425,0.578216,-0.08231,-0.016298,-9.68857,0.003673,-0.037123,0.009065,33.676914,-0.084192,-0.016392,-9.689409,0.003112,-0.037252,0.009144,-0.330317999936,-0.3634217699456,0.799419124928,-0.0951764731904,-0.0146795123584,-9.6909176125312,0.1771012544749374,359.4322561208049,131.0534959169659,0.001439,0.001438,0.011962,0.414256,0.00515,-0.000646,0.910146,0.001439,0.001438,0.011962,2.158363,0.0,0.0,-0.0050371,0.0,0.0,0.0031253999999999,0.0,0.0,0.0,-8.097639920826595
2023-09-08 15:39:04.505,0.0473160431616,-0.0358815834239999,0.0037701582079999,0.0907604158208,0.0907704158208,0.0716953745664,48.359263,-4.557292,47.3744077505152,50.787003,0.5933842471040001,0.5925518721152,0.5791234976767999,-0.0863124897536,-0.016060500608,-9.686698129792,0.0005292580479999,-0.0374904990592,0.0095156238464,33.6765446259456,-0.0868626181632,-0.0155270022144,-9.686849631552,0.0001570075647999,-0.037523874304,0.0095258740224,-0.330293,-0.371213,0.799391,-0.084704,-0.019507,-9.686047,0.1733412285700823,359.3794367092843,131.06814211310956,0.0014402499968,0.0014398749952,0.0119613750016,0.4141378753024,0.0055556239616,-0.0008659994367999,0.9101966248704,0.0014402499968,0.0014398749952,0.0119613750016,2.158363,0.0,0.0,-0.00477672566656,0.0,0.0,0.0064601414630399,0.0,0.0,0.0,-8.082993724682922
2023-09-08 15:39:04.520,0.0469656666666666,-0.0358603333333333,0.0057526666666666,0.0909586666666666,0.0909686666666666,0.071797,48.359263,-4.557292,47.374287,50.787003,0.594063,0.593228,0.579668,-0.088714,-0.015918,-9.685575,-0.001357,-0.037711,0.009786,33.676323,-0.088465,-0.015008,-9.685314,-0.001616,-0.037687,0.009755,-0.3315561928896,-0.36939424224,0.7979871815103999,-0.0858921925696,-0.0211721946048,-9.686681690208,0.1710851976260638,359.3477448460231,131.07692989078674,0.001441,0.001441,0.011961,0.414067,0.005799,-0.000998,0.910227,0.001441,0.001441,0.011961,2.158363,0.0,0.0,-0.0046205,0.0,0.0,0.0084609999999999,0.0,0.0,0.0,-8.074205947005737
2023-09-08 15:39:04.585,0.0454473764949333,-0.0357682500906666,0.0143434915413333,0.0918177491541333,0.0918277491541333,0.0722373745664,48.359263,-4.557292,47.3737637505152,50.787003,0.597004247104,0.5961578721152,0.5820274976768,-0.0895703741568,-0.0159984374208,-9.6843001887552,-0.0070225569216,-0.0371495630528,0.0114743733376,33.675058751244805,-0.0892791241984,-0.015369562144,-9.6851750626368,-0.0071881195136,-0.0369175632576,0.0115888106944,-0.33703,-0.361513,0.791904,-0.091041,-0.028388,-9.689432,0.1413379743897178,359.2127883512466,131.12106192150358,0.0014458749951999,0.0014458749951999,0.011965062496,0.413713562848,0.0067642490496,-0.0017194992896,0.9103797498496,0.0014458749951999,0.0014458749951999,0.011965062496,2.158363,0.0,0.0,-0.00394352566656,0.0,0.0,0.0171313414630399,0.0,0.0,0.0,-8.030073916288899
2023-09-08 15:39:04.600,0.045097,-0.035747,0.016326,0.092016,0.092026,0.072339,48.359263,-4.557292,47.373643,50.787003,0.597683,0.596834,0.582572,-0.089768,-0.016017,-9.684006,-0.00833,-0.03702,0.011864,33.674767,-0.089467,-0.015453,-9.685143,-0.008474,-0.03674,0.012012,-0.3333969844992,-0.3593481157631999,0.7931193801856,-0.0905219977856,-0.0224007244544,-9.6898846269312,0.1344731945172042,359.18164438121465,131.13124628976516,0.001447,0.001447,0.011966,0.413632,0.006987,-0.001886,0.910415,0.001447,0.001447,0.011966,2.158363,0.0,0.0,-0.0037873,0.0,0.0,0.0191322,0.0,0.0,0.0,-8.019889548027322
2023-09-08 15:39:04.620,0.0439045,-0.035575,0.018437,0.091043,0.0910525,0.0718665,48.359263,-4.557292,47.373821500000005,50.787003,0.5965959999999999,0.59575,0.5820485,-0.0863305,-0.0146605,-9.68698,-0.008678,-0.0360075,0.0120875,33.675049,-0.0865605,-0.0137644999999999,-9.687727,-0.0088255,-0.035866,0.01222,-0.3285529844992,-0.3564616157632,0.7947398801856,-0.0898299977856,-0.0144177244544,-9.6904881269312,0.1229567428350746,359.1425113638072,131.1461718403283,0.0014414999999999,0.0014414999999999,0.0119645,0.413513,0.0072565,-0.0021175,0.9104665,0.0014414999999999,0.0014414999999999,0.0119645,2.158363,0.0,0.0,-0.003579,0.0,0.0,0.0218,0.0,0.0,0.0,-8.004963997464188
2023-09-08 15:39:04.625,0.043606378816,-0.0355320005504,0.0189647432448,0.0907997531136,0.0908091281152,0.071748376512,48.359263,-4.557292,47.3738661244288,50.787003,0.5963242534784,0.5954790034688,0.5819176266752,-0.085471136,-0.0143213793408,-9.6877234904832,-0.0087649988864,-0.0357543782399999,0.0121433742848,33.6751194990976,-0.0858338843008,-0.0133423804032,-9.6883729917312,-0.0089133738752,-0.0356475027968,0.0122719993344,-0.327342,-0.35574,0.795145,-0.089657,-0.012422,-9.690639,0.1200776667671876,359.132728234681,131.14990318020733,0.0014401250176,0.0014401250176,0.0119641250048,0.4134832503807999,0.0073238741376,-0.0021753742592,0.9104793748352,0.0014401250176,0.0014401250176,0.0119641250048,2.158363,0.0,0.0,-0.0034166854109866,0.0,0.0,0.0221529121493333,0.0,0.0,0.0,-8.001232657585149
2023-09-08 15:39:04.640,0.042712,-0.035403,0.020548,0.09007,0.090079,0.071394,48.359263,-4.557292,47.374,50.787003,0.595509,0.594666,0.581525,-0.082893,-0.013304,-9.689954,-0.009026,-0.034995,0.012311,33.675331,-0.083654,-0.012076,-9.690311,-0.009177,-0.034992,0.012428,-0.3273337499648,-0.3580777599744,0.7951367499648,-0.0854018568448,-0.0124655001856,-9.6978112806016,0.1114402911529451,359.1033783463998,131.16109739089146,0.001436,0.001436,0.011963,0.413394,0.007526,-0.002349,0.910518,0.001436,0.001436,0.011963,2.158363,0.0,0.0,-0.0029297333333333,0.0,0.0,0.0232116666666666,0.0,0.0,0.0,-7.990038446901025
2023-09-08 15:39:04.665,0.0412951286272,-0.0343261277568,0.023119868416,0.0903987491584,0.0904077491584,0.0715639995648,48.359263,-4.557292,47.373503751270405,50.787003,0.596624622144,0.5957772471552,0.5824262476928,-0.0803161315968,-0.0137302489088,-9.6940427395328,-0.0087047508224,-0.0338031280512,0.0129253734272,33.6752835001216,-0.0798408847616,-0.012660373504,-9.6943072397696,-0.0086451263616,-0.0336407534592,0.0129223737344,-0.32732,-0.361974,0.795123,-0.07831,-0.012538,-9.709765,0.0979041978954668,359.0575418401311,131.18115086238402,0.0014378749952,0.0014378749952,0.0119623750016,0.4132340004096,0.0078422491903999,-0.002620874304,0.9105873748224,0.0014378749952,0.0014378749952,0.0119623750016,2.158363,0.0,0.0,-0.0021181520776533,0.0,0.0,0.0249762454826666,0.0,0.0,0.0,-7.969984975408465
2023-09-08 15:39:04.680,0.040445,-0.03368,0.024663,0.090596,0.090605,0.071666,48.359263,-4.557292,47.373206,50.787003,0.597294,0.596444,0.582967,-0.07877,-0.013986,-9.696496,-0.008512,-0.033088,0.013294,33.675255,-0.077553,-0.013011,-9.696705,-0.008326,-0.03283,0.013219,-0.3294372590336,-0.3654168896896,0.8013585266048,-0.0825501430912,-0.0132343779712,-9.7087161205248,0.089782486497,359.03003974862304,131.1931830274188,0.001439,0.001439,0.011962,0.413138,0.008032,-0.002784,0.910629,0.001439,0.001439,0.011962,2.158363,0.0,0.0,-0.0016312,0.0,0.0,0.026035,0.0,0.0,0.0,-7.957952810373683
2023-09-08 15:39:04.705,0.0388331291264,-0.03214737892352,0.02618162111232,0.0906612498329599,0.09067012483328,0.07170524989952,48.359263,-4.557292,47.372994375541765,50.787003,0.5979983731968,0.59714537320448,0.5836094983552,-0.0842374860032,-0.0147378730752,-9.6999109912576,-0.006937004032,-0.0313623794176,0.0137758737664,33.6751762502016,-0.0846198569088,-0.0144678712704,-9.7001574911616,-0.0067303790848,-0.0312243791103999,0.013775248576,-0.332966,-0.371155,0.811751,-0.089617,-0.014395,-9.706968,0.079863180062287,358.9878558389476,131.21413174317442,0.0014408749951999,0.0014408749951999,0.0119613750016,0.4129705004288,0.008331999232,-0.0030133744128,0.9107014998144,0.0014408749951999,0.0014408749951999,0.0119613750016,2.158363,0.0,0.0,-0.00081961874432,0.0,0.0,0.027799578816,0.0,0.0,0.0,-7.937004094618061
2023-09-08 15:39:04.720,0.037866,-0.0312278,0.0270928,0.0907004,0.0907092,0.0717288,48.359263,-4.557292,47.3728674,50.787003,0.598421,0.5975661999999999,0.583995,-0.087518,-0.015189,-9.70196,-0.005992,-0.030327,0.014065,33.675129,-0.08886,-0.015342,-9.702229,-0.005773,-0.030261,0.014109,-0.3309438976224,-0.3709462178592,0.8100633052992,-0.0886648709376,-0.0142543744,-9.709024415024,0.0739115555718761,358.96254532035664,131.22670105843395,0.001442,0.001442,0.011961,0.41287,0.008512,-0.003151,0.910745,0.001442,0.001442,0.011961,2.158363,0.0,0.0,-0.0003326666666666,0.0,0.0,0.0288583333333333,0.0,0.0,0.0,-7.924434779358535
2023-09-08 15:39:04.865,0.0285171291264,-0.02233857892352,0.03590082111232,0.09107884983296,0.09108692483328,0.07195644989952,48.359263,-4.557292,47.37163997554176,50.787003,0.6025063731968,0.60163417320448,0.5877214983552,-0.0845391575648,-0.0129270009983999,-9.7253666146688,0.0091541495647999,-0.018740598864,0.0159481866688,33.6770167179168,-0.0842662207776,-0.0136174070111999,-9.7259129270464,0.009393087056,-0.0184625364576,0.0158408429855999,-0.311397,-0.368928,0.793749,-0.079461,-0.012895,-9.728903,0.1008602554726286,358.7842892765044,131.36061376950147,0.0014410937504,0.0014410937504,0.0119619062496,0.411796094224,0.01002996808,-0.0035669685664,0.9112135310432,0.0014410937504,0.0014410937504,0.0119619062496,2.158363,0.0,0.0,0.0043745145890133,0.0,0.0,0.0390929121493333,0.0,0.0,0.0,-7.790522068291011
2023-09-08 15:39:04.880,0.02755,-0.021419,0.036812,0.091118,0.091126,0.07198,48.359263,-4.557292,47.371513,50.787003,0.602929,0.602055,0.588107,-0.084231,-0.012693,-9.727788,0.010721,-0.017542,0.016143,33.677212,-0.083791,-0.013439,-9.728363,0.010962,-0.017242,0.01602,-0.3136728847104,-0.3629984747008,0.7969953888512,-0.0853057749376,-0.0086057316992,-9.732660516032,0.1036480651391659,358.7658489092882,131.37446687379818,0.001441,0.001441,0.011962,0.411685,0.010187,-0.00361,0.911262,0.001441,0.001441,0.011962,2.158363,0.0,0.0,0.0048614666666666,0.0,0.0,0.0401516666666666,0.0,0.0,0.0,-7.776668963994297
2023-09-08 15:39:04.905,0.0253650055936,-0.0195327548288,0.0376876227584,0.0914486241536,0.0914559991552,0.0721493745664,48.359263,-4.557292,47.3706280022656,50.787003,0.6040739970688,0.60319562208,0.589025747648,-0.0863984944512,-0.0093036336768,-9.7324836129792,0.0123653707904,-0.0154663803135999,0.0162879996288,33.6774576243712,-0.0870016167808,-0.0094652601728,-9.732947363264,0.012521371008,-0.0151657553152,0.0162674993664,-0.317466,-0.353116,0.802406,-0.095047,-0.001457,-9.738923,0.1211232331541113,358.74708458953444,131.39745674647358,0.0014428749952,0.0014428749952,0.0119613750016,0.4114993754752,0.010399499456,-0.0035362501888,0.9113438747904,0.0014428749952,0.0014428749952,0.0119613750016,2.158363,0.0,0.0,0.0056730479223466,0.0,0.0,0.0419162454826666,0.0,0.0,0.0,-7.753679091318901
2023-09-08 15:39:04.920,0.024054,-0.018401,0.038213,0.091647,0.091654,0.072251,48.359263,-4.557292,47.370097,50.787003,0.604761,0.60388,0.589577,-0.087699,-0.00727,-9.735301,0.013352,-0.014221,0.016375,33.677605,-0.088928,-0.007081,-9.735698,0.013457,-0.01392,0.016416,-0.316391620416,-0.3566533900928,0.799269111616,-0.0889149738368,-0.0070677739391999,-9.7415900113792,0.1316084055415501,358.73582592082334,131.41125076424558,0.001444,0.001444,0.011961,0.411388,0.010527,-0.003492,0.911393,0.001444,0.001444,0.011961,2.158363,0.0,0.0,0.00616,0.0,0.0,0.042975,0.0,0.0,0.0,-7.739885073546901
2023-09-08 15:39:04.945,0.0217183809792,-0.0161997556352,0.0389979979904,0.0919776241536,0.091985249152,0.072419749568,48.359263,-4.557292,47.369212627264,50.787003,0.6059184970368,0.605033122048,0.5905032476288,-0.0840071344512,-0.0094006195456,-9.740416611904,0.0142294977535999,-0.0121622552704,0.016418749888,33.6772162509952,-0.0835548887552,-0.0101834920576,-9.7399342391552,0.0143513727104,-0.011882505216,0.0163853750784,-0.314601,-0.362549,0.794041,-0.078695,-0.016419,-9.746035,0.1511247304762739,358.721681061467,131.435064261643,0.0014458749951999,0.0014458749951999,0.0119653749888,0.4111961254912,0.0107101245312,-0.0033857502719999,0.9114779997824,0.0014458749951999,0.0014458749951999,0.0119653749888,2.158363,0.0,0.0,0.00717599739904,0.0,0.0,0.04353724856064,0.0,0.0,0.0,-7.716071576149488
2023-09-08 15:39:04.960,0.020317,-0.014879,0.039469,0.092176,0.092184,0.072521,48.359263,-4.557292,47.368682,50.787003,0.606613,0.605725,0.591059,-0.081792,-0.010679,-9.743486,0.014756,-0.010927,0.016445,33.676983,-0.080331,-0.012045,-9.742476,0.014888,-0.01066,0.016367,-0.3167827593088,-0.3648136346624,0.7987701451776,-0.08190126368,-0.0133413618688,-9.749676265536,0.1628346053761799,358.71319408791567,131.44935245762176,0.001447,0.001447,0.011968,0.411081,0.01082,-0.003322,0.911529,0.001447,0.001447,0.011968,2.158363,0.0,0.0,0.0077856,0.0,0.0,0.0438746,0.0,0.0,0.0,-7.701783380170724
2023-09-08 15:39:04.985,0.017788881472,-0.0128071303039999,0.0399958736512,0.0925078741504,0.092515249152,0.0726891245696,48.359263,-4.557292,47.3677876272896,50.787003,0.6077829970048,0.606890622016,0.5919908726144,-0.0814970007552,-0.0103515008384,-9.7488928611584,0.014409125888,-0.0088382553472,0.0166156245632,33.6773379990912,-0.0817134964608,-0.0110268776064,-9.7489359834624,0.0143042514944,-0.008594380288,0.0166613742464,-0.320419,-0.368588,0.806652,-0.087245,-0.008212,-9.755745,0.1809543492605291,358.70377611826825,131.47424024813486,0.0014488749951999,0.0014488749951999,0.0119673750016,0.410881000512,0.0109612496384,-0.0032088752896,0.9116177497728,0.0014488749951999,0.0014488749951999,0.0119673750016,2.158363,0.0,0.0,0.00880159739904,0.0,0.0,0.04443684856064,0.0,0.0,0.0,-7.676895589657619
2023-09-08 15:39:05.000,0.016272,-0.011564,0.040312,0.092707,0.092714,0.07279,48.359263,-4.557292,47.367251,50.787003,0.608485,0.60759,0.59255,-0.08132,-0.010155,-9.752137,0.014201,-0.007585,0.016718,33.677551,-0.082543,-0.010416,-9.752812,0.013954,-0.007355,0.016838,-0.3207385013632,-0.3685332497664,0.79909571776,-0.0806239717504,-0.0106892605696,-9.7566866290176,0.1918262698097996,358.69812529790374,131.48917302438338,0.00145,0.00145,0.011967,0.410761,0.011046,-0.003141,0.911671,0.00145,0.00145,0.011967,2.158363,0.0,0.0,0.0094112,0.0,0.0,0.0447742,0.0,0.0,0.0,-7.661962813409104
2023-09-08 15:39:05.020,0.0145055,-0.0103775,0.0398165,0.0917785,0.0917854999999999,0.0723409999999999,48.359263,-4.5572925,47.370037,50.787003,0.6074105000000001,0.6065185,0.5920455,-0.085169,-0.010223,-9.7542255,0.0133815,-0.0058315,0.0164935,33.6774825,-0.0855585,-0.010383,-9.7550265,0.013183,-0.00564,0.01648,-0.3211645013631999,-0.3684602497664,0.78902071776,-0.0717959717503999,-0.0139922605695999,-9.7579421290176,0.2046318765309735,358.6947448469125,131.5088254767564,0.001445,0.0014444999999999,0.0119655,0.410603,0.011119,-0.0030495,0.9117415,0.001445,0.0014444999999999,0.0119655,2.158363,0.0,0.0,0.010224,0.0,0.0,0.045224,0.0,0.0,0.0,-7.642310361036067
2023-09-08 15:39:05.025,0.0140638806527999,-0.0100808787967999,0.0396926265856,0.0915463779712,0.0915533779712,0.0722287514367999,48.359263,-4.5572926249984,47.3707334910848,50.787003,0.6071418784384001,0.6062506284288,0.5919193766144,-0.0861312376832,-0.0102399997824,-9.7547476183168,0.0131766276224,-0.0053931306112,0.0164373757184,33.6774653752192,-0.0863123653504,-0.0103747501056,-9.7555801179136,0.0129902524672,-0.0052112554879999,0.0163905011456,-0.321271,-0.368442,0.786502,-0.069589,-0.014818,-9.758256,0.2078332372333254,358.6938997449821,131.51373852696176,0.001443750016,0.0014431250176,0.0119651250048,0.4105635005056,0.0111372497664,-0.0030266252928,0.9117591247744,0.001443750016,0.0014431250176,0.0119651250048,2.158363,0.0,0.0,0.0104156142139733,0.0,0.0,0.0450920850218666,0.0,0.0,0.0,-7.637397310830721
2023-09-08 15:39:05.040,0.012739,-0.009191,0.039321,0.09085,0.090857,0.071892,48.359263,-4.557293,47.372823,50.787003,0.606336,0.605447,0.591541,-0.089018,-0.010291,-9.756314,0.012562,-0.004078,0.016269,33.677414,-0.088574,-0.01035,-9.757241,0.012412,-0.003925,0.016122,-0.3199611194112,-0.3661788653439999,0.7894307624960001,-0.075109023552,-0.011756111936,-9.7583392503552,0.2174374832521474,358.6913643959212,131.52847792912937,0.00144,0.001439,0.011964,0.410445,0.011192,-0.002958,0.911812,0.00144,0.001439,0.011964,2.158363,0.0,0.0,0.0109904666666666,0.0,0.0,0.0446963333333333,0.0,0.0,0.0,-7.622657908663115
2023-09-08 15:39:05.065,0.0100090069888,-0.0070278805375999,0.03957099936,0.0911806241536,0.0911869991552,0.072060749568,48.359263,-4.557293,47.3718961273728,50.787003,0.6074791220736,0.6065857470848,0.5924609976448,-0.0824205168896,-0.0129091182976,-9.7592871173888,0.0105395051776,-0.0020086302975999,0.0162177501312,33.6772208754944,-0.081549017984,-0.012040620672,-9.7603259921024,0.0103076303872,-0.0017787554944,0.0162257497344,-0.317778,-0.362407,0.794312,-0.084309,-0.006653,-9.758478,0.2285385121141004,358.6917583033969,131.5520049483626,0.0014412499967999,0.0014408749951999,0.0119633750016,0.4102568754816,0.0112288749056,-0.0028655002368,0.911896374784,0.0014412499967999,0.0014408749951999,0.0119633750016,2.158363,0.0,0.0,0.0119485475473066,0.0,0.0,0.0440367516885333,0.0,0.0,0.0,-7.599130889429887
2023-09-08 15:39:05.080,0.008371,-0.00573,0.039721,0.091379,0.091385,0.072162,48.359263,-4.557293,47.37134,50.787003,0.608165,0.607269,0.593013,-0.078462,-0.01448,-9.761071,0.009326,-0.000767,0.016187,33.677105,-0.077334,-0.013055,-9.762177,0.009045,-0.000491,0.016288,-0.3164096191616,-0.3578184804224,0.7987610189824,-0.0825419924608,-0.008889884544,-9.7637201473664,0.2351991749012029,358.6919946494958,131.56612125626944,0.001442,0.001442,0.011963,0.410144,0.011251,-0.00281,0.911947,0.001442,0.001442,0.011963,2.158363,0.0,0.0,0.0125234,0.0,0.0,0.043641,0.0,0.0,0.0,-7.58501458152304
2023-09-08 15:39:05.105,0.0058526731136,-0.0037332342784,0.0386516277376,0.0914716039296,0.0914774997632,0.072213562368,48.359263,-4.557293,47.3711943753728,50.7871070622336,0.6089227063935999,0.6080234772351999,0.5936923732608,-0.0789457487616,-0.0126031298048,-9.7703628512128,0.0066253819135999,0.0017286186112,0.0160513753472,33.6773168744576,-0.078330872448,-0.0124156266368,-9.770339479104,0.0062331321983999,0.0020471185023999,0.0159992507392,-0.314129,-0.350171,0.806176,-0.079597,-0.012618,-9.772457,0.2398902548396411,358.6982255495668,131.58903950940382,0.0014438749952,0.0014438749952,0.011963,0.4099615004672,0.0112191250816,-0.0027481251584,0.9120294997888,0.0014438749952,0.0014438749952,0.011963,2.158363,0.0,0.0,0.01348148088064,0.0,0.0,0.0429814183552,0.0,0.0,0.0,-7.562096328388662
2023-09-08 15:39:05.120,0.0043416666666666,-0.0025351666666666,0.03801,0.0915271666666666,0.0915329999999999,0.0722445,48.359263,-4.557293,47.371107,50.7871695,0.6093773333333333,0.6084761666666666,0.5941000000000001,-0.079236,-0.011477,-9.775938,0.005005,0.003226,0.01597,33.677444,-0.078929,-0.012032,-9.775237,0.004546,0.00357,0.015826,-0.31482822798336,-0.35107610386176,0.80653585153536,-0.07817604393728,-0.01165372088576,-9.77918197869312,0.2427049220174167,358.70196411513115,131.60279055515784,0.001445,0.001445,0.011963,0.409852,0.0112,-0.002711,0.912079,0.001445,0.001445,0.011963,2.158363,0.0,0.0,0.0140563333333333,0.0,0.0,0.0425856666666666,0.0,0.0,0.0,-7.548345282634642
2023-09-08 15:39:05.305,-0.0142939935530666,0.0122409323882666,0.0300966277376,0.0922124372629333,0.0922174997632,0.072626062368,48.359263,-4.557293,47.3700293753728,50.7879395622336,0.6149843730602667,0.6140593105685332,0.5991273732608,-0.0670537542144,-0.0049696272512,-9.83865945330176,-0.00927977005824,0.02166216862208,0.01522167525888,33.6772081250816,-0.06714080407808,-0.00478370250752,-9.8397649776768,-0.0094353701631999,0.02193956864512,0.01530152518144,-0.323452,-0.362239,0.810974,-0.060651,0.000239,-9.862123,0.1683479174833394,358.872301543907,131.77477093984282,0.00144684999936,0.00144592499968,0.01196484999936,0.40849780046848,0.0095821755596799,-0.00267955001088,0.91270429978368,0.00144684999936,0.00144592499968,0.01196484999936,2.158363,0.0,0.0,0.0211461475473066,0.0,0.0,0.0377047516885333,0.0,0.0,0.0,-7.376364897949656
2023-09-08 15:39:05.320,-0.015805,0.013439,0.029455,0.092268,0.092273,0.072657,48.359263,-4.557293,47.369942,50.788002,0.615439,0.614512,0.599535,-0.066066,-0.004442,-9.843745,-0.010438,0.023157,0.015161,33.677189,-0.066185,-0.004196,-9.844997,-0.010569,0.023429,0.015259,-0.3235731255168,-0.3645538848768,0.8079428620672,-0.0637695133056,-0.0085420374656,-9.8623003757568,0.1623189433605622,358.8861127504862,131.78871535967775,0.001447,0.001446,0.011965,0.408388,0.009451,-0.002677,0.912755,0.001447,0.001446,0.011965,2.158363,0.0,0.0,0.021721,0.0,0.0,0.037309,0.0,0.0,0.0,-7.362420478114728
2023-09-08 15:39:05.345,-0.0178474947711999,0.0153758700416,0.0269237564799999,0.0926004991488,0.0926054991488,0.0728251245696,48.359263,-4.557293,47.3693570014976,50.788002,0.6166196219776,0.6156876219904,0.6004774975872,-0.0671622471936,-0.0090038633216,-9.8575568396416,-0.0105261247744,0.025669493568,0.0151647499904,33.6767071262336,-0.0662481248384,-0.0082372396544,-9.8564494706816,-0.0105021251712,0.0258383688319999,0.0151633752448,-0.323775,-0.368412,0.802891,-0.068967,-0.023177,-9.862596,0.1456315902971101,358.9263271227829,131.81088160763116,0.0014482499968,0.0014478749952,0.0119687499904,0.4082148754432,0.0090716259711999,-0.0026651250304,0.9128368747904,0.0014482499968,0.0014478749952,0.0119687499904,2.158363,0.0,0.0,0.02186387463424,0.0,0.0,0.03368013428992,0.0,0.0,0.0,-7.340254230161321
2023-09-08 15:39:05.360,-0.019073,0.016538,0.025405,0.0928,0.092805,0.072926,48.359263,-4.557293,47.369006,50.788002,0.617328,0.616393,0.601043,-0.06782,-0.011741,-9.865844,-0.010579,0.027177,0.015167,33.676418,-0.066286,-0.010662,-9.863321,-0.010462,0.027284,0.015106,-0.3250492554367999,-0.3636708547712,0.8014971190528001,-0.061393842688,-0.0135964591231999,-9.83028023712,0.1356191101074658,358.9504559108794,131.82418144719637,0.001449,0.001449,0.011971,0.408111,0.008844,-0.002658,0.912886,0.001449,0.001449,0.011971,2.158363,0.0,0.0,0.0219496,0.0,0.0,0.0315028,0.0,0.0,0.0,-7.326954390596114
2023-09-08 15:39:05.385,-0.0204568357430857,0.0182703169938285,0.0215446527396571,0.0926997323995428,0.092705000256,0.0728567144630857,48.359263,-4.557293,47.3692672493312,50.788002,0.6155952365787428,0.6146678258450285,0.5994255934262858,-0.0644312586752,-0.0104853782144,-9.8667496226816,-0.0111552485248,0.0295719938688,0.0142870022528,33.6758530014464,-0.0630491332864,-0.0047076402432,-9.8674234894976,-0.010590124672,0.0299096182784,0.0143003770624,-0.327173,-0.355769,0.799174,-0.048772,0.002371,-9.776421,0.1186810886503568,358.99668632462385,131.84444977731206,0.0014508749951999,0.0014508749951999,0.011971,0.4079522504064,0.0084158760959999,-0.00262675008,0.9129603748096,0.0014508749951999,0.0014508749951999,0.011971,2.158363,0.0,0.0,0.02209247463424,0.0,0.0,0.02787393428992,0.0,0.0,0.0,-7.306686060480416
2023-09-08 15:39:05.400,-0.0212871428571428,0.0193097142857142,0.0192284285714285,0.0926395714285714,0.092645,0.0728151428571428,48.359263,-4.557293,47.369424,50.788002,0.6145555714285714,0.6136327142857143,0.5984551428571429,-0.062398,-0.009732,-9.867293,-0.011501,0.031009,0.013759,33.675514,-0.061107,-0.001135,-9.869885,-0.010667,0.031485,0.013817,-0.3271301873173333,-0.3557764375317333,0.8001815667989334,-0.0436231655317333,-0.0005426999317333,-9.787298546410666,0.1085182063977779,359.02442476223075,131.85661085840076,0.001452,0.001452,0.011971,0.407857,0.008159,-0.002608,0.913005,0.001452,0.001452,0.011971,2.158363,0.0,0.0,0.0221782,0.0,0.0,0.0256966,0.0,0.0,0.0,-7.294524979391724
2023-09-08 15:39:05.625,-0.0337416928859428,0.0349006027081142,-0.0155147758317714,0.0917371609709714,0.091745000256,0.0721915716059428,48.359263,-4.557293,47.3717752493312,50.788002,0.5989606651501714,0.5981061115593143,0.5838984505691429,0.0422108988159999,-0.0048695906688,-9.9316060174208,-0.0012626993408,0.0458437279231999,0.0078463231104,33.6764887318656,0.045490737536,-0.0032829458175999,-9.9409737297792,-0.0007694135295999,0.0460698172799999,0.00760941248,-0.326488,-0.355888,0.815295,0.033609,-0.044248,-9.950461,0.0390649984248481,359.58450875258944,132.00153332948426,0.0014463750016,0.0014463750016,0.0119719374997333,0.4067198128234667,0.0034508763392,-0.0011633129109333,0.9135449998464,0.0014463750016,0.0014463750016,0.0119719374997333,2.158363,0.0,0.0,0.02346407463424,0.0,0.0,-0.0069632657100799,0.0,0.0,0.0,-7.14960250830822
2023-09-08 15:39:05.640,-0.034572,0.03594,-0.017831,0.091677,0.091685,0.07215,48.359263,-4.557293,47.371932,50.788002,0.597921,0.597071,0.582928,0.0491848571428571,-0.0045454285714285,-9.93589357142857,-0.0005801428571428,0.0468327142857142,0.0074521428571428,33.67655371428572,0.0525972857142857,-0.0034261428571428,-9.945713,-0.0001095714285714,0.0470421428571428,0.0071955714285714,-0.3303223913599999,-0.3545147441408,0.809559350528,0.05673722368,-0.0408114853376,-9.9344698067712,0.0344347634873624,359.6218478552137,132.01119487152707,0.001446,0.001446,0.011972,0.406644,0.003137,-0.001067,0.913581,0.001446,0.001446,0.011972,2.158363,0.0,0.0,0.0235498,0.0,0.0,-0.0091405999999999,0.0,0.0,0.0,-7.139940966265414
2023-09-08 15:39:05.665,-0.0363244955136,0.0383624937983999,-0.022193488832,0.0920132491392,0.0920212491392,0.072318749568,48.359263,-4.557293,47.37249449856,50.788002,0.5990697470592,0.5982153720704,0.5838448726528,0.0608080416731428,-0.0040051620973714,-9.943039445992229,0.0005574435163428,0.0484810136374857,0.0067951802532571,33.676662017579886,0.0644414518217142,-0.0036648029604571,-9.9536117297792,0.0009901578989714,0.0486626744228571,0.0065058410514285,-0.336713,-0.352226,0.8,0.095284,-0.035084,-9.907818,0.0354374370619904,359.6941119721279,132.02025474346922,0.0014478749952,0.0014478749952,0.011972,0.4065727501824,0.0025645014656,-0.0008026256768,0.9136141249152,0.0014478749952,0.0014478749952,0.011972,2.158363,0.0,0.0,0.02369267463424,0.0,0.0,-0.0127694657100799,0.0,0.0,0.0,-7.130881094323257
2023-09-08 15:39:05.680,-0.037376,0.039816,-0.024811,0.092215,0.092223,0.07242,48.359263,-4.557293,47.372832,50.788002,0.599759,0.598902,0.584395,0.067782,-0.003681,-9.947327,0.00124,0.04947,0.006401,33.676727,0.071548,-0.003808,-9.958351,0.00165,0.049635,0.006092,-0.3379516302847999,-0.3568373946752,0.7985738689152,0.1078401785728,-0.0266700891007999,-9.9307579728768,0.0360390453137287,359.73747073827104,132.02569070374386,0.001449,0.001449,0.011972,0.40653,0.002221,-0.000644,0.913634,0.001449,0.001449,0.011972,2.158363,0.0,0.0,0.0237784,0.0,0.0,-0.0149467999999999,0.0,0.0,0.0,-7.1254451340486185
2023-09-08 15:39:05.705,-0.0395097445376,0.0427559924736,-0.0290134892416,0.0925518741376,0.0925598741376,0.072588749568,48.359263,-4.557293,47.3735919980544,50.788002,0.6009202470272,0.6000588720384,0.5853187476352,0.0954463041792,-0.0065959925375999,-9.9556307287424,0.002296247296,0.0505399972607999,0.0054966273152,33.6768607496576,0.1003954261504,-0.0060542442496,-9.9568585038208,0.0022181235456,0.0506324974464,0.0053582518784,-0.340016,-0.364523,0.796197,0.128767,-0.012647,-9.968991,0.038402490168209,359.8120624902693,132.03392695096403,0.0014508749951999,0.0014502499968,0.011972,0.4064650001664,0.0016347515008,-0.0003602507264,0.9136646249216,0.0014508749951999,0.0014502499968,0.011972,2.158363,0.0,0.0,0.02392127463424,0.0,0.0,-0.01857566571008,0.0,0.0,0.0,-7.11720888682845
2023-09-08 15:39:05.720,-0.04079,0.04452,-0.031535,0.092754,0.092762,0.07269,48.359263,-4.557293,47.374048,50.788002,0.601617,0.600753,0.585873,0.112045,-0.008345,-9.960613,0.00293,0.051182,0.004954,33.676941,0.117704,-0.007402,-9.955963,0.002559,0.051231,0.004918,-0.3330012200704,-0.3624844913024,0.7925729845376001,0.1456221969152,-0.0055290946303999,-9.9690108750848,0.0398205667615922,359.8568178469968,132.03886873303188,0.001452,0.001451,0.011972,0.406426,0.001283,-0.00019,0.913683,0.001452,0.001451,0.011972,2.158363,0.0,0.0,0.024007,0.0,0.0,-0.020753,0.0,0.0,0.0,-7.112267104760605
2023-09-08 15:39:05.745,-0.0433424934656,0.0479337412607999,-0.0354074900864,0.093091499136,0.0930994991359999,0.0728574995712,48.359263,-4.5572923750016,47.3749492476928,50.788002,0.6027919969919999,0.6019229970048,0.5868036226176,0.1435724192896,-0.0064350048896,-9.9550736391808,0.0028475002112,0.0517701234944,0.00381337792,33.676876625164795,0.1465614261248,-0.0046963819264,-9.9485405190016,0.0031021236096,0.051790373568,0.0036242533119999,-0.32131,-0.359087,0.786533,0.173714,0.006334,-9.969044,0.0434373535843575,359.9326629409634,132.0433807641177,0.0014532499968,0.0014528749952,0.0119763749888,0.4063903750912,0.0006911265152,0.0001074992383999,0.9136992499584,0.0014532499968,0.0014528749952,0.0119763749888,2.158363,0.0,0.0,0.02320600205056,0.0,0.0,-0.02473023981824,0.0,0.0,0.0,-7.107755073674781
2023-09-08 15:39:05.760,-0.044874,0.049982,-0.037731,0.093294,0.093302,0.072958,48.359263,-4.557292,47.37549,50.788002,0.603497,0.602625,0.587362,0.162489,-0.005289,-9.95175,0.002798,0.052123,0.003129,33.676838,0.163876,-0.003073,-9.944087,0.003428,0.052126,0.002848,-0.3270220243712,-0.3565253640704,0.7930944029952001,0.1922548291072,0.0193619305856,-9.966623364672,0.0456074404924135,359.9781703080056,132.04608800125052,0.001454,0.001454,0.011979,0.406369,0.000336,0.000286,0.913709,0.001454,0.001454,0.011979,2.158363,0.0,0.0,0.0227254,0.0,0.0,-0.0271166,0.0,0.0,0.0,-7.1050478365419565
2023-09-08 15:39:05.785,-0.0483496161024,0.0537969902335999,-0.0416672399232,0.0936321241344,0.0936401241344,0.0731254995712,48.359263,-4.557292,47.3765281223424,50.788002,0.6046844969599999,0.6038081219712,0.5882994976,0.1957870397568,-0.0017383840896,-9.9519799994112,0.0032923737344,0.0519955003264,0.0022171273344,33.6768523749632,0.2000621573632,0.003792607424,-9.9467738681216,0.0035579996672,0.0521509999359999,0.0020717519872,-0.336542,-0.352256,0.80403,0.223156,0.041075,-9.962589,0.0495107054793583,135.0546630215131,132.04866630472816,0.0014558749952,0.0014558749952,0.011979,0.4063483750527999,-0.0002558734848,0.0005866242304,0.9137177499776,0.0014558749952,0.0014558749952,0.011979,2.158363,0.0,0.0,0.02192440205056,0.0,0.0,-0.03109383981824,0.0,0.0,0.0,-7.102469533064323
2023-09-08 15:39:05.800,-0.050435,0.056086,-0.044029,0.093835,0.093843,0.073226,48.359263,-4.557292,47.377151,50.788002,0.605397,0.604518,0.588862,0.215766,0.000392,-9.952118,0.003589,0.051919,0.00167,33.676861,0.221774,0.007912,-9.948386,0.003636,0.052166,0.001606,-0.339425762304,-0.3555668891264,0.7921304492288,0.2355550529024,0.0286058217984,-9.9890937380864,0.0518526804593395,0.0996373605732501,132.05021329737548,0.001457,0.001457,0.011979,0.406336,-0.000611,0.000767,0.913723,0.001457,0.001457,0.011979,2.158363,0.0,0.0,0.0214438,0.0,0.0,-0.0334802,0.0,0.0,0.0,-7.100922540417002
2023-09-08 15:39:05.820,-0.0520795,0.0590155,-0.0472169999999999,0.0925145,0.092522,0.0725919999999999,48.359263,-4.5572925,47.377521,50.7875025,0.603701,0.602827,0.587989,0.233538,-0.0091175,-9.9507455,0.0038965,0.052223,0.000804,33.6765235,0.2391475,-0.0114834999999999,-9.956698,0.0037295,0.0521615,0.0006905,-0.343270762304,-0.3599813891264,0.7762644492288,0.2520870529024,0.0119803217983999,-10.0244332380864,0.0552044835608548,0.1609724925420047,132.0505284241628,0.0014494999999999,0.0014494999999999,0.0119775,0.4063334999999999,-0.001088,0.001011,0.9137235,0.0014494999999999,0.0014494999999999,0.0119775,2.158363,0.0,0.0,0.020803,0.0,0.0,-0.036662,0.0,0.0,0.0,-7.100607413629689
2023-09-08 15:39:05.825,-0.0524906197376,0.0597478656256,-0.0480139897984,0.0921843792256,0.0921917542272,0.0724335020288,48.359263,-4.5572926249984,47.377613498816,50.7873776265984,0.6032770054272,0.6024042554112,0.5877707527936,0.2379809431296,-0.0114948445696,-9.950402379392,0.003973374016,0.0522989990272,0.0005875027712,33.67643912608,0.2434908194048,-0.0163323129343999,-9.9587759734016,0.0037528747008,0.0521603750144,0.0004616279296,-0.344232,-0.361085,0.772298,0.25622,0.007824,-10.033268,0.0560424236104637,0.1763060792617711,132.05060720485122,0.001447625024,0.001447625024,0.0119771250048,0.4063328750079999,-0.0012072484736,0.0010719992192,0.9137236249984,0.001447625024,0.001447625024,0.0119771250048,2.158363,0.0,0.0,0.0205408866884266,0.0,0.0,-0.03675794877184,0.0,0.0,0.0,-7.100528632941263
2023-09-08 15:39:05.840,-0.053724,0.061945,-0.050405,0.091194,0.091201,0.071958,48.359263,-4.557293,47.377891,50.787003,0.602005,0.601136,0.587116,0.25131,-0.018627,-9.949373,0.004204,0.052527,-6.2e-05,33.676186,0.256521,-0.030879,-9.96501,0.003823,0.052157,-0.000225,-0.337967598272,-0.3579001114112,0.7793581551232001,0.2497898475648,0.0134261489023999,-9.9931510788352,0.0585562866623701,0.2223076245107594,132.0508435509501,0.001442,0.001442,0.011976,0.406331,-0.001565,0.001255,0.913724,0.001442,0.001442,0.011976,2.158363,0.0,0.0,0.0197545333333333,0.0,0.0,-0.0370458,0.0,0.0,0.0,-7.100292286842375
2023-09-08 15:39:05.865,-0.0568377420288,0.0661056143488,-0.0535156170368,0.0915296241408,0.0915366241408,0.0721273745664,48.359263,-4.5572923750016,47.3792141216128,50.787003,0.6031487470720001,0.6022753720832,0.5880328726528,0.2601012274944,-0.0111338941824,-9.9455092598912,0.0029096283136,0.0517007521152,-0.0016207460096,33.675692251264,0.2614859872896,-0.01889465568,-9.9387700671744,0.0027280028031999,0.0516626262656,-0.0017587460735999,-0.327527,-0.352592,0.791125,0.239073,0.022763,-9.92629,0.0602035361064018,0.2970784253615916,132.04772810091467,0.0014438749952,0.0014438749952,0.0119766249984,0.4063559999359999,-0.002155623488,0.0015337492864,0.9137108750336,0.0014438749952,0.0014438749952,0.0119766249984,2.158363,0.0,0.0,0.0184439533550933,0.0,0.0,-0.03752554877184,0.0,0.0,0.0,-7.103407736877813
2023-09-08 15:39:05.880,-0.058706,0.068602,-0.055382,0.091731,0.091738,0.072229,48.359263,-4.557292,47.380008,50.787003,0.603835,0.602959,0.588583,0.265376,-0.006638,-9.943191,0.002133,0.051205,-0.002556,33.675396,0.264465,-0.011704,-9.923026,0.002071,0.051366,-0.002679,-0.3302191364864,-0.3559358892672,0.7837592185728,0.243597394304,0.0196759868288,-9.9063459149056,0.0611918925199719,0.3419412121340753,132.0458588181325,0.001445,0.001445,0.011977,0.406371,-0.00251,0.001701,0.913703,0.001445,0.001445,0.011977,2.158363,0.0,0.0,0.0176576,0.0,0.0,-0.0378134,0.0,0.0,0.0,-7.10527701965998
2023-09-08 15:39:05.905,-0.0607440304969142,0.0716018137490285,-0.0573605663634285,0.0918479639862857,0.0918546961298285,0.0722906069851428,48.359263,-4.557292,47.38122835401874,50.787003,0.6046346408100571,0.6037553372470857,0.5892868374838857,0.2624997573632,-0.00377863232,-9.9389478858624,0.0006698787456,0.0503656271487999,-0.0039722463744,33.6748097515008,0.267521242176,-0.0047483928064,-9.9559277907712,0.0007441283968,0.0501935030016,-0.004125871296,-0.334706,-0.361509,0.771483,0.251138,0.014531,-9.873106,0.0597953114695971,0.4140262801957253,132.03858943471644,0.0014468749952,0.0014468749952,0.011977,0.4064278748543999,-0.0030893735168,0.0019453743744,0.9136755000704,0.0014468749952,0.0014468749952,0.011977,2.158363,0.0,0.0,0.01634702002176,0.0,0.0,-0.03829314877184,0.0,0.0,0.0,-7.112546403076038
2023-09-08 15:39:05.920,-0.0619668571428571,0.0734017142857142,-0.0585477142857142,0.0919181428571428,0.0919247142857142,0.0723275714285714,48.359263,-4.557292,47.38196057142857,50.787003,0.6051144285714286,0.6042331428571429,0.5897091428571428,0.260774,-0.002063,-9.936402,-0.000208,0.049862,-0.004822,33.674458,0.269355,-0.000575,-9.975669,-5.2e-05,0.04949,-0.004994,-0.3352513148266666,-0.3609065599296,0.7727950680981334,0.2547248278037333,0.0198150225450666,-9.8633703959616,0.0589573571189617,0.45727761629391,132.03422777489132,0.001448,0.001448,0.011977,0.406462,-0.003437,0.002092,0.913659,0.001448,0.001448,0.011977,2.158363,0.0,0.0,0.0155606666666666,0.0,0.0,-0.038581,0.0,0.0,0.0,-7.11690806290116
2023-09-08 15:39:06.145,-0.0803091733540571,0.1004000994633142,-0.0763548520777142,0.0929708211291428,0.0929749818441142,0.0728820355565714,48.359263,-4.557292,47.39294378259017,50.787003,0.6123112122386285,0.6114001943899429,0.5960436946267429,0.2859289928448,0.0002751243349333,-9.889350763383469,-0.0116623717418666,0.0168085719018666,-0.0173976214229333,33.67257268803627,0.2877928072554667,-8.656263893333331e-05,-9.868118093092267,-0.0121335590634666,0.0165556343679999,-0.0175208714368,-0.343431,-0.35187,0.792476,0.308527,0.099075,-9.717337,337.43032189333,0.8727077094591368,131.8770046196425,0.0014508124992,0.0014508124992,0.0119901249962666,0.4077004371477333,-0.0072010614293333,0.0025513748693333,0.9130833751637332,0.0014508124992,0.0014508124992,0.0119901249962666,2.158363,0.0,0.0,0.00376542002176,0.0,0.0,-0.0428987487718399,0.0,0.0,0.0,-7.274131218149989
2023-09-08 15:39:06.160,-0.081532,0.1022,-0.077542,0.093041,0.093045,0.072919,48.359263,-4.557292,47.393676,50.787003,0.612791,0.611878,0.596466,0.287606,0.000431,-9.886214,-0.012426,0.014605,-0.018236,33.672447,0.289022,-5.4e-05,-9.860948,-0.012939,0.01436,-0.018356,-0.3426093714943999,-0.355365014912,0.7832952108287999,0.3058727386752,0.0645966028928,-9.7167947476864,359.9218485567442,0.9004031750480886,131.86652302825655,0.001451,0.001451,0.011991,0.407783,-0.007452,0.002582,0.913045,0.001451,0.001451,0.011991,2.158363,0.0,0.0,0.0029790666666666,0.0,0.0,-0.0431866,0.0,0.0,0.0,-7.284612809535929
2023-09-08 15:39:06.185,-0.0825394974208,0.1049987428352,-0.0763915862784,0.0929616252032,0.0929654168704,0.0728858750848,48.3592627916672,-4.557292,47.3939872492032,50.787003,0.613263915456,0.6123486237952,0.5969709987072,0.286815377024,-0.0056046095488,-9.8735959073024,-0.0121303757568,0.0091512639616,-0.0196784963071999,33.6723257503104,0.2816007689984,-0.0048677376768,-9.8643723662336,-0.0125815009152,0.00856313984,-0.0197491214336,-0.34124,-0.36119,0.767994,0.301449,0.007133,-9.715891,359.90236804158,0.9088184711208596,131.8366576796408,0.0014528749952,0.0014528749952,0.011991,0.4080192493952,-0.0075882496512,0.0024588753152,0.912938750272,0.0014528749952,0.0014528749952,0.011991,2.158363,0.0,0.0,0.0016684866884266,0.0,0.0,-0.0436663487718399,0.0,0.0,0.0,-7.314478158151672
2023-09-08 15:39:06.200,-0.083144,0.106678,-0.0757013333333333,0.092914,0.0929176666666666,0.072866,48.359262666666666,-4.557292,47.394174,50.787003,0.6135476666666666,0.612631,0.5972740000000001,0.286341,-0.009226,-9.866025,-0.011953,0.005879,-0.020544,33.672253,0.277148,-0.007756,-9.866427,-0.012367,0.005085,-0.020585,-0.339986557152,-0.3606700602816,0.7694055060224,0.3014073748224,-0.0023369154048,-9.7324722582464,359.890679652689,0.913867683233663,131.8187383481426,0.001454,0.001454,0.011991,0.408161,-0.00767,0.002385,0.912875,0.001454,0.001454,0.011991,2.158363,0.0,0.0,0.0008821333333333,0.0,0.0,-0.0439542,0.0,0.0,0.0,-7.332397489649878
2023-09-08 15:39:06.265,-0.0857634974208,0.1139547428352,-0.0727102529450666,0.0927076252032,0.0927107502037333,0.0727798750848,48.35926212500053,-4.557292,47.3949832492032,50.787003,0.6147772487893333,0.6138546237952001,0.5985869987072,0.2853465009792,-0.013463183328,-9.836015342048,-0.0102540641728,-0.0100898592768,-0.0218171862464,33.6724106248448,0.2824763697536,-0.0101723726208,-9.8175982355776,-0.009758877568,-0.010620609536,-0.0217582488448,-0.334555,-0.358417,0.775522,0.301227,-0.043373,-9.804324,359.8496666578984,0.8829566406218732,131.73778307238675,0.0014491250048,0.001449937504,0.0119893750016,0.4088044993664,-0.0075684375999999,0.0019527504256,0.9125890002816,0.0014491250048,0.001449937504,0.0119893750016,2.158363,0.0,0.0,-0.0025253799782399,0.0,0.0,-0.0452015487718399,0.0,0.0,0.0,-7.413352765405733
2023-09-08 15:39:06.280,-0.086368,0.115634,-0.07202,0.09266,0.092663,0.07276,48.359262,-4.557292,47.39517,50.787003,0.615061,0.614137,0.59889,0.285117,-0.014441,-9.82909,-0.009862,-0.013775,-0.022111,33.672447,0.283706,-0.01073,-9.80633,-0.009157,-0.014245,-0.022029,-0.3391952697984,-0.358223874176,0.7789506396288,0.2905304543616,-0.0324653284608,-9.7573040493824,359.840202070938,0.8758232856369763,131.7191009875694,0.001448,0.001449,0.011989,0.408953,-0.007545,0.001853,0.912523,0.001448,0.001449,0.011989,2.158363,0.0,0.0,-0.0033117333333333,0.0,0.0,-0.0454894,0.0,0.0,0.0,-7.43203485022309
2023-09-08 15:39:06.305,-0.0873520599808,0.1192693031936,-0.0701000049152,0.0929949991424,0.0929976866431999,0.0729268745728,48.359262,-4.557292,47.3966103088128,50.787003,0.6162534969472,0.6153251219584001,0.599836872576,0.2824745067648,-0.0156922467968,-9.8166031569664,-0.008271379072,-0.0203943580544,-0.0220753750912,33.6725757496704,0.2838228747008,-0.0162087359744,-9.8353586756864,-0.0078770032768,-0.0210256076416,-0.02207587488,-0.346929,-0.357902,0.784665,0.272703,-0.014286,-9.678938,359.8282416075835,0.8409803789186527,131.68712286249286,0.0014498749952,0.0014508749951999,0.0119883750016,0.40919518688,-0.0072378132864,0.0016286255744,0.9124170627712,0.0014498749952,0.001450562496,0.011990562496,2.158363,0.0,0.0,-0.0046223133115733,0.0,0.0,-0.0459691487718399,0.0,0.0,0.0,-7.464012975299624
2023-09-08 15:39:06.320,-0.0879425,0.1214504999999999,-0.068948,0.093196,0.0931984999999999,0.073027,48.359262,-4.557292,47.3974745,50.787003,0.616969,0.6160380000000001,0.6004050000000001,0.280889,-0.016443,-9.809111,-0.007317,-0.024366,-0.022054,33.672653,0.283893,-0.019496,-9.852776,-0.007109,-0.025094,-0.022104,-0.3470520005248,-0.359049504896,0.781638737088,0.26753735296,-0.0108569853696,-9.6560621523968,359.8210652805806,0.8200744921707472,131.6679358564642,0.001451,0.001452,0.011988,0.4093405,-0.0070535,0.001494,0.9123535,0.001451,0.0014515,0.0119914999999999,2.158363,0.0,0.0,-0.0054086666666666,0.0,0.0,-0.046257,0.0,0.0,0.0,-7.4831999813282835
2023-09-08 15:39:06.345,-0.0889265599808,0.1250858031936,-0.0670280049152,0.0935309991424,0.0935331866432,0.0731938745728,48.359262,-4.557292,47.398914808812805,50.787003,0.6181614969472,0.6172261219584,0.601351872576,0.2813621237888,-0.0202717401983999,-9.7963472826752,-0.0049726310016,-0.0310834828032,-0.021144627328,33.67268424992,0.2830561271424,-0.0243172376576,-9.8077798651904,-0.0048171308672,-0.0319539824384,-0.021032127744,-0.347257,-0.360962,0.776595,0.258928,-0.005142,-9.617936,359.8144762828045,0.7695110961930772,131.63932384981678,0.0014528749952,0.0014532499968,0.0119917499904,0.40958268688,-0.0067463132864,0.0012696255744,0.9122475627712,0.0014528749952,0.001453062496,0.011993062496,2.158363,0.0,0.0,-0.0067192466449066,0.0,0.0,-0.0467367487718399,0.0,0.0,0.0,-7.511811987975705
2023-09-08 15:39:06.360,-0.089517,0.127267,-0.065876,0.093732,0.093734,0.073294,48.359262,-4.557292,47.399779,50.787003,0.618877,0.617939,0.60192,0.281646,-0.022569,-9.788689,-0.003566,-0.035114,-0.020599,33.672703,0.282554,-0.02721,-9.780782,-0.003442,-0.03607,-0.020389,-0.3412389743232,-0.3589047412224,0.7776071293184,0.2723069320832,-0.0233228275712,-9.70286448736,359.81052285715026,0.739172851498275,131.62215652863324,0.001454,0.001454,0.011994,0.409728,-0.006562,0.001135,0.912184,0.001454,0.001454,0.011994,2.158363,0.0,0.0,-0.0075055999999999,0.0,0.0,-0.0470246,0.0,0.0,0.0,-7.52897930915924
2023-09-08 15:39:06.385,-0.0908251216511999,0.131035740352,-0.062216634368,0.0940669991424,0.094068374144,0.073459624576,48.359262,-4.557292,47.4010502467456,50.787003,0.6200888718976,0.6191458719104,0.6028768725504,0.279642880128,-0.0277421117567999,-9.7895821227136,-0.0007397572352,-0.04137960896,-0.0189908791168,33.6730917490048,0.2775233878784,-0.0265837516032,-9.767982032768,-0.0008657565951999,-0.0419774848768,-0.0187990040704,-0.331209,-0.355476,0.779294,0.294605,-0.053624,-9.844411,359.8098782812808,0.6751091720336492,131.5967674013328,0.0014558749952,0.0014558749952,0.0119933750016,0.4099323744768,-0.0060538763008,0.0009018755967999,0.9120958752256,0.0014558749952,0.0014558749952,0.0119933750016,2.158363,0.0,0.0,-0.0088161799782399,0.0,0.0,-0.0475043487718399,0.0,0.0,0.0,-7.554368436459669
2023-09-08 15:39:06.400,-0.09161,0.133297,-0.060021,0.094268,0.094269,0.073559,48.359262,-4.557292,47.401813,50.787003,0.620816,0.61987,0.603451,0.278441,-0.030846,-9.790118,0.000956,-0.045139,-0.018026,33.673325,0.274505,-0.026208,-9.760302,0.00068,-0.045522,-0.017845,-0.3322061292543999,-0.3566238798976,0.7839248947584,0.2907777336704,-0.0922199146752,-9.7617711474048,359.809491533119,0.6366707019493708,131.58153382095844,0.001457,0.001457,0.011993,0.410055,-0.005749,0.000762,0.912043,0.001457,0.001457,0.011993,2.158363,0.0,0.0,-0.0096025333333333,0.0,0.0,-0.0477921999999999,0.0,0.0,0.0,-7.56960201683404
2023-09-08 15:39:06.420,-0.092342,0.1358385,-0.05502,0.0929215,0.0929245,0.0727655,48.359262,-4.557292,47.3980795,50.787003,0.6067945,0.605908,0.590731,0.2812065,-0.0332045,-9.7535865,0.0025455,-0.0495645,-0.0166525,33.6733265,0.277452,-0.0237985,-9.7328615,0.0024025,-0.0502225,-0.0164904999999999,-0.3335356292544,-0.3581543798976,0.7900993947584,0.2856747336704,-0.1436809146751999,-9.6515851474048,359.8129292798898,0.5751923305318334,131.56388672086842,0.001451,0.0014514999999999,0.0119905,0.4101975,-0.0052475,0.00057,0.9119815,0.001451,0.0014514999999999,0.0119905,2.158363,0.0,0.0,-0.010651,0.0,0.0,-0.048176,0.0,0.0,0.0,-7.587249116924056
2023-09-08 15:39:06.425,-0.0925249976576,0.1364738668672,-0.0537697660032,0.0925848793088,0.0925883793023999,0.0725671275392,48.359262,-4.557292,47.3971461369472,50.787003,0.6032891698688,0.6024175446784,0.587551040704,0.2818978661504,-0.0337941174528,-9.7444537419008,0.0029428699135999,-0.0506708608384,-0.0163091293952,33.6733268749952,0.2781887405696,-0.0231961327103999,-9.7260014628096,0.002833119488,-0.0513976099584,-0.0161518793344,-0.333868,-0.358537,0.791643,0.284399,-0.156546,-9.624039,359.81378870558166,0.5598229344082376,131.55947500231665,0.0014495000192,0.0014501250176,0.011989875008,0.410233124544,-0.0051221266048,0.0005220006144,0.9119661251968,0.0014495000192,0.0014501250176,0.011989875008,2.158363,0.0,0.0,-0.0107902482176,0.0,0.0,-0.0471972625279999,0.0,0.0,0.0,-7.591660835475835
2023-09-08 15:39:06.440,-0.093074,0.13838,-0.050019,0.091575,0.09158,0.071972,48.359262,-4.557292,47.394346,50.787003,0.592773,0.591946,0.578011,0.283972,-0.035563,-9.717055,0.004135,-0.05399,-0.015279,33.673328,0.280399,-0.021389,-9.705421,0.004125,-0.054923,-0.015136,-0.3412075313152,-0.359350753472,0.7877144832384,0.2842291242752,-0.0648937339519999,-9.613321454272,359.81636702666054,0.5137139591142961,131.5462396207784,0.001445,0.001446,0.011988,0.41034,-0.004746,0.000378,0.91192,0.001445,0.001446,0.011988,2.158363,0.0,0.0,-0.011208,0.0,0.0,-0.0442609999999999,0.0,0.0,0.0,-7.604896217014073
2023-09-08 15:39:06.465,-0.095648993408,0.1421868652544,-0.0459333854592,0.091909374144,0.0919137491456,0.0721401245695999,48.359262,-4.557292,47.395280372608,50.787003,0.5939111220864,0.593080372096,0.5789191226752,0.2729632781824,-0.021272411584,-9.7103931420544,0.0064568690559999,-0.0592293615872,-0.0136152542592,33.6736523741696,0.2734252678528,-0.0171165109376,-9.7272496941184,0.007756240704,-0.059763612608,-0.0133772545024,-0.35344,-0.360707,0.781167,0.283946,0.087859,-9.595459,359.8291511147371,0.4250847770712837,131.5286928332224,0.0014468749952,0.0014478749952,0.0119873750016,0.4104818746368,-0.0039947519232,0.0001630005504,0.9118593751552,0.0014468749952,0.0014478749952,0.0119873750016,2.158363,0.0,0.0,-0.0119042482176,0.0,0.0,-0.039367262528,0.0,0.0,0.0,-7.622443004570073
2023-09-08 15:39:06.480,-0.097194,0.144471,-0.043482,0.09211,0.092114,0.072241,48.359262,-4.557292,47.395841,50.787003,0.594594,0.593761,0.579464,0.266358,-0.012698,-9.706396,0.00785,-0.062373,-0.012617,33.673847,0.269241,-0.014553,-9.740347,0.009935,-0.062668,-0.012322,-0.3510452397824,-0.3631535104384,0.7809562491008,0.2765067182592,0.0892153807872,-9.5839985761024,359.8368216199468,0.3719069048194173,131.518164688817,0.001448,0.001449,0.011987,0.410567,-0.003544,3.4e-05,0.911823,0.001448,0.001449,0.011987,2.158363,0.0,0.0,-0.012322,0.0,0.0,-0.036431,0.0,0.0,0.0,-7.632971148975486
2023-09-08 15:39:06.505,-0.1000214927616,0.149133488064,-0.0383838880512,0.0924437491456,0.0924471241472,0.0724091245696,48.359262,-4.557292,47.396640997952,50.787003,0.5957458720512,0.594907872064,0.5803789976576,0.270282989952,-0.0110092543232,-9.7021322609152,0.011715615104,-0.0670929879168,-0.0103863807104,33.6744119985536,0.2737991133312,-0.0290398379136,-9.7089258304384,0.012500618432,-0.0674936126464,-0.0101101306624,-0.347054,-0.367231,0.780605,0.264108,0.091476,-9.564898,359.8555859397005,0.2722483134554967,131.50720689903713,0.0014498749952,0.0014508749951999,0.0119857500032,0.4106569997696,-0.0026840022015999,-0.0001734994687999,0.911785500096,0.0014498749952,0.0014508749951999,0.0119857500032,2.158363,0.0,0.0,-0.0130182482176,0.0,0.0,-0.031537262528,0.0,0.0,0.0,-7.643928938755351
2023-09-08 15:39:06.520,-0.101718,0.151931,-0.035325,0.092644,0.092647,0.07251,48.359262,-4.557292,47.397121,50.787003,0.596437,0.595596,0.580928,0.272638,-0.009996,-9.699574,0.014035,-0.069925,-0.009048,33.674751,0.276534,-0.037732,-9.690073,0.01404,-0.070389,-0.008783,-0.341228350144,-0.3663073710591999,0.7770784849536,0.2698263993984,0.0489331934848,-9.5244169522816,359.8668446084116,0.2124527504345092,131.500632180286,0.001451,0.001452,0.011985,0.410711,-0.002168,-0.000298,0.911763,0.001451,0.001452,0.011985,2.158363,0.0,0.0,-0.013436,0.0,0.0,-0.028601,0.0,0.0,0.0,-7.650503657506476
2023-09-08 15:39:06.545,-0.1049529917184,0.156590363072,-0.0290931409536,0.0929777491456,0.0929801241472,0.0726774995712,48.359262,-4.557292,47.3976872485504,50.787003,0.5976013720192,0.5967559970303999,0.58184987264,0.267456763264,-0.0273078306816,-9.6650247134464,0.0146018735488,-0.073646865472,-0.0071686298112,33.674238501312004,0.2661090266879999,-0.0334113860608,-9.6577305827968,0.0139068753408,-0.0743746147967999,-0.0069273797504,-0.331519,-0.364768,0.771201,0.279357,-0.021971,-9.456949,359.8853582597717,0.1036626675873692,131.49293307962367,0.0014528749952,0.0014538749951999,0.011988124992,0.41077349984,-0.0012361273856,-0.0005404993792,0.9117361250688,0.0014528749952,0.0014538749951999,0.011988124992,2.158363,0.0,0.0,-0.01340575007744,0.0,0.0,-0.02247389068544,0.0,0.0,0.0,-7.658202758168812
2023-09-08 15:39:06.560,-0.106894,0.159386,-0.025354,0.093178,0.09318,0.072778,48.359262,-4.557292,47.398027,50.787003,0.5983,0.597452,0.582403,0.264348,-0.037695,-9.644295,0.014942,-0.07588,-0.006041,33.673931,0.259854,-0.030819,-9.638325,0.013827,-0.076766,-0.005814,-0.3337206343936,-0.361188609728,0.7759507702656,0.2684223283456,0.00748537568,-9.5472726353792,359.8964665264199,0.0383881722737651,131.48831358769067,0.001454,0.001455,0.01199,0.410811,-0.000677,-0.000686,0.91172,0.001454,0.001455,0.01199,2.158363,0.0,0.0,-0.0133876,0.0,0.0,-0.0187975999999999,0.0,0.0,0.0,-7.6628222501018115
2023-09-08 15:39:06.585,-0.1113560198272,0.1642573937792,-0.0183872990848,0.0931600312959999,0.093161250048,0.0727775312512,48.359262,-4.5572918437504,47.3969540339968,50.7871590933504,0.5988973422208,0.598046529728,0.5829806547712,0.2581967657472,-0.0210462926208,-9.6494743617408,0.0174526185728,-0.0790099919872,-0.0042210046592,33.674646623168,0.252116519808,-0.0153696645504,-9.6455587314816,0.0175088655743999,-0.0791616188672,-0.0040452545279999,-0.33739,-0.355223,0.783867,0.250198,0.056579,-9.697811,359.92339547385274,224.9235790043072,131.48444613247423,0.0014558749952,0.0014562499968,0.0119887500032,0.4108422499199999,0.0003286224256,-0.0008816244992,0.9117056250368,0.0014558749952,0.0014562499968,0.0119887500032,2.158363,0.0,0.0,-0.01335735007744,0.0,0.0,-0.01267049068544,0.0,0.0,0.0,-7.666689705318248
2023-09-08 15:39:06.600,-0.11403325,0.16718025,-0.01420725,0.09314925,0.09315,0.07277725,48.359262,-4.55729175,47.39631025,50.78725275,0.59925575,0.59840325,0.58332725,0.254506,-0.011057,-9.652582,0.018959,-0.080888,-0.003129,33.675076,0.247474,-0.0061,-9.649899,0.019718,-0.080599,-0.002984,-0.3361992761696,-0.3546925602368,0.7837677183264,0.2462966708544,0.0559389660191999,-9.7089437662496,359.9395529526137,359.85561463562703,131.48212564350325,0.001457,0.001457,0.011988,0.410861,0.000932,-0.000999,0.911697,0.001457,0.001457,0.011988,2.158363,0.0,0.0,-0.0133392,0.0,0.0,-0.0089941999999999,0.0,0.0,0.0,-7.669010194289228
2023-09-08 15:39:06.720,-0.135451,0.190563,0.019233,0.093063,0.09306,0.072775,48.359262,-4.557291,47.39116,50.788002,0.602123,0.601257,0.5861,0.2348215,-0.003554,-9.5833915,0.023201,-0.08264675,0.00492075,33.6762685,0.23007925,-0.0019172499999999,-9.6123375,0.02445575,-0.0817885,0.0051077499999999,-0.3266735261696,-0.3504490602368,0.7829734683263999,0.2150861708544,0.0508187160191999,-9.7980055162496,90.09824793792006,359.28662457322747,131.5077368569456,0.00145625,0.001457,0.01198725,0.410721,0.006038,-0.001822,0.911739,0.001453,0.001454,0.011981,2.158363,0.0,0.0,-0.013194,0.0,0.0,0.020416,0.0,0.0,0.0,-7.643398980846882
2023-09-08 15:39:06.745,-0.1419841082752,0.1963092352896,0.0248879855232,0.093394249152,0.0933906241536,0.0729424995712,48.359262,-4.557291,47.390613751398405,50.788002,0.6033036219776,0.6024332469888,0.5870331226112,0.2307205729984,-0.0019908790016,-9.5689768494016,0.0240847477376,-0.083013155312,0.0065977769568,33.676516936864,0.2264553530272,-0.0010458459808,-9.6045122075328,0.0254427787232,-0.0820363118656,0.0067935269343999,-0.324689,-0.349565,0.782808,0.208584,0.049752,-9.81656,33.88145330855485,359.1680852803556,131.51307251275344,0.0014560937504,0.001457,0.0119870937504,0.4106247502464,0.0070936222976,-0.0019538746624,0.9117739999104,0.0014548749952,0.0014558749952,0.0119847499904,2.158363,0.0,0.0,-0.01164569146368,0.0,0.0,0.02537148731392,0.0,0.0,0.0,-7.638063325039042
2023-09-08 15:39:06.760,-0.145904,0.199757,0.028281,0.093593,0.093589,0.073043,48.359262,-4.557291,47.390286,50.788002,0.604012,0.603139,0.587593,0.22826,-0.001053,-9.560328,0.024615,-0.083233,0.007604,33.676666,0.224281,-0.000523,-9.599817,0.026035,-0.082185,0.007805,-0.318662724288,-0.351012506176,0.7838066292608,0.2147861514624,-0.0081099968768,-9.6843708109952,0.1511462663555111,359.0969612190943,131.51627392809306,0.001456,0.001457,0.011987,0.410567,0.007727,-0.002033,0.911795,0.001456,0.001457,0.011987,2.158363,0.0,0.0,-0.0107167,0.0,0.0,0.0283448,0.0,0.0,0.0,-7.634861909699424
2023-09-08 15:39:06.785,-0.1515877354496,0.2054610478976,0.03524191968,0.0932201884544,0.093215563456,0.0728736254336,48.359262,-4.557291,47.3891269404672,50.7876898132992,0.6040301249536,0.6031564999552,0.587821124416,0.2261775053311999,-0.0180067065983999,-9.5393518036992,0.0238731268992,-0.0807373813888,0.0088208718848,33.6763135009024,0.22524974752,-0.0223566941055999,-9.5264596877952,0.0236306311551999,-0.0803387547264,0.0089506220672,-0.308619,-0.353425,0.785471,0.225123,-0.104546,-9.464057,0.1814055224469638,358.9846259689654,131.52948773341583,0.0014578749952,0.0014588749951999,0.0119857500032,0.410454500288,0.0087294974336,-0.0021936245888,0.9118362498944,0.0014578749952,0.0014588749951999,0.0119857500032,2.158363,0.0,0.0,-0.00916839146368,0.0,0.0,0.03330028731392,0.0,0.0,0.0,-7.621648104376646
2023-09-08 15:39:06.800,-0.154998,0.2088835,0.0394184999999999,0.0929965,0.0929915,0.072772,48.359262,-4.557291,47.3884315,50.7875025,0.604041,0.603167,0.587958,0.224928,-0.028179,-9.526766,0.023428,-0.07924,0.009551,33.676102,0.225831,-0.035457,-9.482445,0.022188,-0.079231,0.009638,-0.3096757545087999,-0.3557305098368,0.7885868882944,0.2043419113344,-0.0704444795007999,-9.5508709954048,0.1995612000440657,358.91722435876176,131.5374160707334,0.001459,0.00146,0.011985,0.410387,0.009331,-0.00229,0.911861,0.001459,0.00146,0.011985,2.158363,0.0,0.0,-0.0082394,0.0,0.0,0.0362736,0.0,0.0,0.0,-7.613719767059081
2023-09-08 15:39:06.825,-0.1606817354496,0.2145875478976,0.04637941968,0.0926236884544,0.092618063456,0.0726026254336,48.359262,-4.557291,47.3872724404672,50.7871903132992,0.6040591249536,0.6031844999552001,0.588186124416,0.2226298808832,-0.0194996472192,-9.5371072235264,0.0216111296512,-0.0770981304832,0.0113566203776,33.6760732500736,0.220459138752,-0.022444533312,-9.54428859168,0.021175502592,-0.0765335069056,0.0115236201728,-0.311437,-0.359573,0.79378,0.169707,-0.013609,-9.69556,0.2270272940347689,358.8128388776889,131.5543540921905,0.001452750016,0.001453750016,0.0119825000064,0.4102445003648,0.0102603726208,-0.0024437496064,0.911914124864,0.001452750016,0.001453750016,0.0119825000064,2.158363,0.0,0.0,-0.00669109146368,0.0,0.0,0.04122908731392,0.0,0.0,0.0,-7.596781745601987
2023-09-08 15:39:06.840,-0.164092,0.21801,0.050556,0.0924,0.092394,0.072501,48.359262,-4.557291,47.386577,50.787003,0.60407,0.603195,0.588323,0.221251,-0.014292,-9.543312,0.020521,-0.075813,0.01244,33.676056,0.217236,-0.014637,-9.581395,0.020568,-0.074915,0.012655,-0.3173354001664,-0.3581476189183999,0.7958035086336,0.1999223789183999,-0.0448751334016,-9.6276730853504,0.2435070629305999,358.7502071614811,131.56451697444308,0.001449,0.00145,0.011981,0.410159,0.010818,-0.002536,0.911946,0.001449,0.00145,0.011981,2.158363,0.0,0.0,-0.0057621,0.0,0.0,0.0442024,0.0,0.0,0.0,-7.5866188633494
2023-09-08 15:39:06.865,-0.172088854528,0.2253406062336,0.0586584792575999,0.0927299991552,0.0927233741568,0.0726684995712,48.359262,-4.557291,47.3852751283328,50.787003,0.6052399970048,0.604360622016,0.5892523726208,0.2217428737408,-0.0212976070656,-9.527752664832,0.0179747565184,-0.071775510336,0.0144906197503999,33.6762416245248,0.221873488128,-0.0155082477696,-9.5085308115328,0.0174186330623999,-0.0716975082367999,0.0147824945536,-0.327166,-0.355772,0.799176,0.250281,-0.096985,-9.514529,0.2639186321283845,358.6513721948392,131.586719032167,0.0014508749951999,0.0014518749952,0.0119803750016,0.409974625472,0.0116779977984,-0.0027247495167999,0.912017874816,0.0014508749951999,0.0014518749952,0.0119803750016,2.158363,0.0,0.0,-0.00421379146368,0.0,0.0,0.04915788731392,0.0,0.0,0.0,-7.564416805625484
2023-09-08 15:39:06.880,-0.176887,0.229739,0.06352,0.092928,0.092921,0.072769,48.359262,-4.557291,47.384494,50.787003,0.605942,0.60506,0.58981,0.222038,-0.025501,-9.518417,0.016447,-0.069353,0.015721,33.676353,0.224656,-0.016031,-9.464812,0.015529,-0.069767,0.016059,-0.321342225152,-0.3548472460544,0.7956487349504,0.2283636564864,-0.0858092023168,-9.4899705202176,0.2761656572530567,358.592070810025,131.6000403577412,0.001452,0.001453,0.01198,0.409864,0.012194,-0.002838,0.912061,0.001452,0.001453,0.01198,2.158363,0.0,0.0,-0.0032847999999999,0.0,0.0,0.0521312,0.0,0.0,0.0,-7.551095480051288
2023-09-08 15:39:06.905,-0.1851021352192,0.2368191381248,0.0680512383999999,0.0929087812992,0.0929011563008,0.0727688437504,48.359262,-4.557291,47.3834210339968,50.787003,0.6065438734592,0.605659217216,0.5903948422527999,0.2079836609792,-0.0222460083328,-9.520582619456,0.0135163825024,-0.064971761216,0.017539745344,33.6751517530752,0.20639042176,-0.020143489472,-9.5249537210368,0.0134458803328,-0.0643488888704,0.017752745664,-0.311636,-0.353306,0.78977,0.191835,-0.067183,-9.44904,0.2916354781187462,358.5056260239839,131.62761388104346,0.0014538749951999,0.0014548749952,0.0119787500032,0.4096365005824,0.0129383730944,-0.0030211245312,0.912151624768,0.0014538749951999,0.0014548749952,0.0119787500032,2.158363,0.0,0.0,-0.0017364914636799,0.0,0.0,0.05708668731392,0.0,0.0,0.0,-7.523521956749022
2023-09-08 15:39:06.920,-0.1900312499999999,0.24106725,0.07077,0.09289725,0.09288925,0.07276875,48.359262,-4.557291,47.38277725,50.787003,0.606905,0.60601875,0.59074575,0.199551,-0.020293,-9.521882,0.011758,-0.062343,0.018631,33.674431,0.195431,-0.022611,-9.561039,0.012196,-0.061098,0.018769,-0.3146122001984,-0.3543406294144,0.7900197510656,0.1940773220672,-0.0583252747072,-9.4566217823488,0.3009174340027083,358.45375879828043,131.64415810796626,0.001455,0.001456,0.011978,0.4095,0.013385,-0.003131,0.912206,0.001455,0.001456,0.011978,2.158363,0.0,0.0,-0.0008074999999999,0.0,0.0,0.06006,0.0,0.0,0.0,-7.506977729826218
2023-09-08 15:39:06.985,-0.2113906352191999,0.2594756381248,0.0825512384,0.0928472812992,0.0928376563008,0.0727683437504,48.359262,-4.557291,47.3799875339968,50.787003,0.6084698734592,0.607576717216,0.5922663422528,0.1967226902848,-0.0171096281344,-9.5551928422016,0.0053465688128,-0.0476830769344,0.0237846824256,33.673519375897605,0.1899173804288,-0.0130860718784,-9.541270894464,0.0051825069055999,-0.046745201632,0.0239860573632,-0.327509,-0.358824,0.791102,0.203794,-0.019942,-9.489476,0.3151160303831238,358.2761134088127,131.73195664164976,0.0014598749952,0.001460062496,0.0119804374976,0.4087866257024,0.0148523735552,-0.0036412494976,0.9125017497088,0.0014598749952,0.001460062496,0.0119804374976,2.158363,0.0,0.0,0.0032181085363199,0.0,0.0,0.07294428731392,0.0,0.0,0.0,-7.419179196142721
2023-09-08 15:39:07.000,-0.21631975,0.26372375,0.08527,0.09283575,0.09282575,0.07276825,48.359262,-4.557291,47.37934375,50.787003,0.6088309999999999,0.60793625,0.59261725,0.19607,-0.016375,-9.56288,0.003867,-0.0443,0.024974,33.673309,0.188645,-0.010888,-9.536709,0.003564,-0.043433,0.02519,-0.3219812889152,-0.3608450711231999,0.7944162641408,0.1996729199168,-0.0178013033664,-9.5382001453888,0.3183926467541985,358.2351181036585,131.75221794812794,0.001461,0.001461,0.011981,0.408622,0.015191,-0.003759,0.91257,0.001461,0.001461,0.011981,2.158363,0.0,0.0,0.0041471,0.0,0.0,0.0759176,0.0,0.0,0.0,-7.3989178896645456
2023-09-08 15:39:07.040,-0.229464,0.275052,0.09252,0.092805,0.092794,0.072768,48.359262,-4.557291,47.377627,50.787003,0.609794,0.608895,0.593553,0.183373,-0.0191955,-9.6025005,0.000668,-0.032908,0.02824,33.672672000000006,0.1835995,-0.0127035,-9.5727775,0.000771,-0.032153,0.0284859999999999,-0.3072407889152,-0.3662345711232,0.8032542641408,0.1886834199168,-0.0120928033664,-9.6681306453888,0.3159289282351359,358.1657329146682,131.81810809456798,0.001451,0.001452,0.011977,0.408092,0.015737,-0.004017,0.912796,0.001451,0.001452,0.011977,2.158363,0.0,0.0,0.0066244,0.0,0.0,0.0838464,0.0,0.0,0.0,-7.3330277432245055
2023-09-08 15:39:07.065,-0.2387664761856,0.2829094798848,0.0954581174784,0.0931356241536,0.0931239991552,0.0729348745728,48.359262,-4.557291,47.3755532553088,50.787003,0.6109796219647999,0.6100756219776,0.5944929975936,0.1754373953152,-0.0209583079872,-9.6272632491072,-0.0013313698815999,-0.0257880182272,0.0302812447744,33.672273876019204,0.1804460705728,-0.0138381845952,-9.5953202547904,-0.0009746205312,-0.0251030180479999,0.0305459947264,-0.298028,-0.369603,0.808778,0.181815,-0.008525,-9.749337,0.3102709844925921,358.13679862008604,131.86372974221356,0.0014528749952,0.0014532499968,0.0119757500032,0.4077270009344,0.015949499456,-0.0041588746368,0.9129547495936,0.0014528749952,0.0014532499968,0.0119757500032,2.158363,0.0,0.0,0.00817270853632,0.0,0.0,0.08880188731392,0.0,0.0,0.0,-7.287406095578916
2023-09-08 15:39:07.080,-0.244348,0.287624,0.097221,0.093334,0.093322,0.073035,48.359262,-4.557291,47.374309,50.787003,0.611691,0.610784,0.595057,0.170676,-0.022016,-9.642121,-0.002531,-0.021516,0.031506,33.672035,0.178554,-0.014519,-9.608846,-0.002022,-0.020873,0.031782,-0.3065266612608,-0.3610240883968,0.806496115264,0.1671276873344,-0.0150260277376,-9.6904853739008,0.3068761950720689,358.1194379248216,131.89110291766767,0.001454,0.001454,0.011975,0.407508,0.016077,-0.004244,0.91305,0.001454,0.001454,0.011975,2.158363,0.0,0.0,0.0091017,0.0,0.0,0.0917752,0.0,0.0,0.0,-7.260032920124814
2023-09-08 15:39:07.105,-0.2533061020672,0.2957564791808,0.0978128734848,0.0936658741504,0.093653249152,0.0732018745728,48.359262,-4.5572903750016005,47.37215275552,50.787003,0.6128891219328,0.611977746944,0.5960032475775999,0.1711722487296,-0.0227866230271999,-9.6542790938752,-0.0038897465215999,-0.01370352,0.0338522439936,33.6724306239872,0.1724233906944,-0.0260952203648,-9.658911496832,-0.0040538697984,-0.0128886454399999,0.0341019940608,-0.320691,-0.346726,0.802693,0.142649,-0.025861,-9.5924,0.2963481225384746,358.10876661320594,131.94055621075913,0.0014558749952,0.0014558749952,0.0119731250048,0.4071148760064,0.0161263748736,-0.0043589997056,0.9132243745536,0.0014558749952,0.0014558749952,0.0119731250048,2.158363,0.0,0.0,0.01065000853632,0.0,0.0,0.09673068731392,0.0,0.0,0.0,-7.210579627033354
2023-09-08 15:39:07.120,-0.258681,0.300636,0.098168,0.093865,0.093852,0.073302,48.359262,-4.55729,47.370859,50.787003,0.613608,0.612694,0.596571,0.17147,-0.023249,-9.661574,-0.004705,-0.009016,0.03526,33.672668,0.168745,-0.033041,-9.688951,-0.005273,-0.008098,0.035494,-0.3157646039808,-0.3551459109247999,0.80528051104,0.1633708384128,-0.0332815316608,-9.6497497446912,0.2900312358952226,358.1023637825267,131.97022838917522,0.001457,0.001457,0.011972,0.406879,0.016156,-0.004428,0.913329,0.001457,0.001457,0.011972,2.158363,0.0,0.0,0.011579,0.0,0.0,0.099704,0.0,0.0,0.0,-7.180907448617262
2023-09-08 15:39:07.145,-0.267215353152,0.308695354368,0.0976886262272,0.0941987491456,0.0941844991488,0.0734688745728,48.359262,-4.55729,47.368774630336006,50.787003,0.6148192468992001,0.613900246912,0.5975253725568,0.1643000183552,-0.0303214818944,-9.6966220352768,-0.0056743725184,-0.0007235212288,0.0373837445632,33.673016124108806,0.1590431498368,-0.0378572376704,-9.7104596949376,-0.0060723729536,0.0001744788223999,0.0376802444031999,-0.307554,-0.369179,0.809593,0.197907,-0.045649,-9.745332,0.2774978162123724,358.1106358395174,132.026557158207,0.0014582499968,0.0014588749951999,0.011975124992,0.406432126144,0.0160472502784,-0.0044904998399999,0.913528999488,0.0014582499968,0.0014588749951999,0.011975124992,2.158363,0.0,0.0,0.013541494976,0.0,0.0,0.0971427565568,0.0,0.0,0.0,-7.124578679585483
2023-09-08 15:39:07.160,-0.272336,0.313531,0.097401,0.094399,0.094384,0.073569,48.359262,-4.55729,47.367524,50.787003,0.615546,0.614624,0.598098,0.159998,-0.034565,-9.717651,-0.006256,0.004252,0.038658,33.673225,0.153222,-0.040747,-9.723365,-0.006552,0.005138,0.038992,-0.3112068905855999,-0.3655002343039999,0.808398619904,0.1750559025024,-0.028974553856,-9.7613824434816,0.2699777130656439,358.1155991075942,132.0603546503493,0.001459,0.00146,0.011977,0.406164,0.015982,-0.004528,0.913649,0.001459,0.00146,0.011977,2.158363,0.0,0.0,0.014719,0.0,0.0,0.095606,0.0,0.0,0.0,-7.090781187443184
2023-09-08 15:39:07.185,-0.280595353856,0.3200605666176,0.0938876756608,0.0942817086336,0.0942660836351999,0.0735206667904,48.3592617916672,-4.55729,47.3674096252928,50.787003,0.6159745405696,0.6150504572415999,0.5985819570944,0.1479642808064,-0.0281556414079999,-9.7447309306752,-0.0071416227328,0.0128413530111999,0.0416273673984,33.6732849998464,0.1451670206208,-0.02987202784,-9.7624730248832,-0.0072638731775999,0.014000477312,0.041923242496,-0.317295,-0.359369,0.806408,0.136971,-0.001184,-9.788133,0.2556179950861497,358.14421111424167,132.1240602321087,0.0014608749952,0.0014618749952,0.0119757500032,0.4056602512896,0.0157057507072,-0.0045323749888,0.9138777494144,0.0014608749952,0.0014618749952,0.0119757500032,2.158363,0.0,0.0,0.016681494976,0.0,0.0,0.0930447565568,0.0,0.0,0.0,-7.027075605683791
2023-09-08 15:39:07.200,-0.285551,0.3239783333333333,0.0917796666666666,0.0942113333333333,0.0941953333333333,0.0734916666666666,48.35926166666667,-4.55729,47.367341,50.787003,0.6162316666666667,0.6153063333333333,0.5988723333333333,0.140744,-0.02431,-9.760979,-0.007673,0.017995,0.043409,33.673321,0.140334,-0.023347,-9.785938,-0.007691,0.019318,0.043682,-0.3149748651007999,-0.3588818729216,0.8046963051968,0.1391874469568,-0.0151042468928,-9.8105134704896,0.2470021054808978,358.1613784354252,132.16228384210305,0.001462,0.001463,0.011975,0.405358,0.01554,-0.004535,0.914015,0.001462,0.001463,0.011975,2.158363,0.0,0.0,0.017859,0.0,0.0,0.091508,0.0,0.0,0.0,-6.98885199568943
2023-09-08 15:39:07.265,-0.307025353856,0.3409552332842666,0.0826450089941333,0.0939063753002666,0.0938887503018666,0.0733660001237333,48.35926112500053,-4.55729,47.3670436252928,50.787003,0.6173458739029334,0.6164151239082666,0.6001306237610666,0.1368789413056,-0.0213395029247999,-9.8381818614848,-0.0087934363967999,0.0384301673792,0.0495539314496,33.6747493735936,0.13673869104,-0.0196696286208,-9.82103796544,-0.0090454361664,0.0395053551232,0.0498171814592,-0.304921,-0.356771,0.797279,0.148792,-0.075425,-9.907495,0.2045459746647046,358.30550582688016,132.35105534480007,0.0014563125056,0.0014573125056,0.0119685000064,0.403867063968,0.0142473137727999,-0.0043408126912,0.9146958743296,0.0014563125056,0.0014573125056,0.0119685000064,2.158363,0.0,0.0,0.022961494976,0.0,0.0,0.0848487565568,0.0,0.0,0.0,-6.800080492992407
2023-09-08 15:39:07.280,-0.311981,0.344873,0.080537,0.093836,0.093818,0.073337,48.359261,-4.55729,47.366975,50.787003,0.617603,0.616671,0.600421,0.135987,-0.020654,-9.855998,-0.009052,0.043146,0.050972,33.675079,0.135909,-0.018821,-9.829138,-0.009358,0.044164,0.051233,-0.3107537748864,-0.3565242489472,0.8008092650624,0.1363145717632,-0.0419189820416,-9.904213736,0.1947483545649668,358.3387661687977,132.39461822802863,0.001455,0.001456,0.011967,0.403523,0.013949,-0.004296,0.914853,0.001455,0.001456,0.011967,2.158363,0.0,0.0,0.024139,0.0,0.0,0.083312,0.0,0.0,0.0,-6.756517609763847
2023-09-08 15:39:07.305,-0.3196444178816,0.3511257964927999,0.0740879540096,0.0941731866368,0.0941545616384,0.0735038745728,48.359261,-4.5572896875008,47.3655278162048,50.787003,0.6188242468736,0.6178875593856,0.6013822475392,0.1379194950528,-0.0140177669887999,-9.8889185407232,-0.0096163735552,0.0503809814784,0.053321993984,33.6751171249024,0.1395921155712,-0.01716475424,-9.9182990217472,-0.0093754999552,0.0512689818112,0.0536248688768,-0.320475,-0.356113,0.806693,0.115519,0.013924,-9.898745,0.1778103331078577,358.4192665329321,132.47332810363693,0.0014568749952,0.0014578749952,0.0119657500032,0.4028773766528,0.0131824394624,-0.0041235004416,0.915148311744,0.0014568749952,0.0014578749952,0.0119679374976,2.158363,0.0,0.0,0.026101494976,0.0,0.0,0.0807507565568,0.0,0.0,0.0,-6.67780773415555
2023-09-08 15:39:07.320,-0.3242425,0.3548774999999999,0.0702185,0.0943755,0.0943565,0.073604,48.359261,-4.5572895,47.3646595,50.787003,0.619557,0.6186175,0.6019589999999999,0.139079,-0.010036,-9.908671,-0.009955,0.054722,0.054732,33.67514,0.141802,-0.016171,-9.971796,-0.009386,0.055532,0.05506,-0.3180903648256,-0.3562206254592,0.8064897491328,0.1271954248192,0.0181626430848,-9.9191672121344,0.1676474508552788,358.4675670811431,132.52055435139837,0.001458,0.001459,0.011965,0.40249,0.0127225,-0.00402,0.9153255,0.001458,0.001459,0.0119685,2.158363,0.0,0.0,0.027279,0.0,0.0,0.079214,0.0,0.0,0.0,-6.630581486394107
2023-09-08 15:39:07.345,-0.3319059178816,0.3611302964928,0.0637694540096,0.0947126866368,0.0946930616384,0.0737708745728,48.359261,-4.5572891875008,47.3632123162048,50.787003,0.6207782468736001,0.6198340593856,0.6029202475391999,0.1270184058752,-0.0126666182656,-9.944927157184,-0.0106068733312,0.061650107264,0.0570126191616,33.675411874304004,0.1310182776064,-0.0064872747904,-9.939461707776,-0.0106359968,0.062291357696,0.0572968692736,-0.314116,-0.3564,0.806151,0.146656,0.025227,-9.953204,0.1478804575268978,358.5635730759137,132.60524445868393,0.0014598749952,0.0014608749952,0.011968124992,0.4018443766528,0.0119559394623999,-0.0038475004416,0.915620811744,0.0014598749952,0.0014608749952,0.0119694374976,2.158363,0.0,0.0,0.0262923953828571,0.0,0.0,0.07183876888064,0.0,0.0,0.0,-6.545891379108554
2023-09-08 15:39:07.360,-0.336504,0.364882,0.0599,0.094915,0.094895,0.073871,48.359261,-4.557289,47.362344,50.787003,0.621511,0.620564,0.603497,0.119782,-0.014245,-9.966681,-0.010998,0.065807,0.058381,33.675575,0.124548,-0.000677,-9.920061,-0.011386,0.066347,0.058639,-0.321331030784,-0.3560677485824,0.8052494961536,0.1308511825664,0.0185028463104,-9.9626480402944,0.1360201805640574,358.62117706601765,132.6560588699468,0.001461,0.001462,0.01197,0.401457,0.011496,-0.003744,0.915798,0.001461,0.001462,0.01197,2.158363,0.0,0.0,0.0257004285714285,0.0,0.0,0.0674136,0.0,0.0,0.0,-6.495076967845677
2023-09-08 15:39:07.385,-0.3428858586624,0.369989799424,0.051812520704,0.0952549991296,0.0952343741311999,0.0740369370752,48.359261,-4.557289,47.361444002304,50.787003,0.6227588093056,0.6218068093184,0.6044713725056,0.1262182335232,-0.0072150179968,-9.984265329984,-0.0109923750144,0.071872609472,0.0607659938944,33.67585624928,0.13328235264,-0.004070741312,-9.965820257856,-0.0113222501632,0.072809483456,0.0610527438208,-0.333356,-0.355514,0.803747,0.10451,0.007296,-9.978388,0.1165396653998558,358.73204411555514,132.74612044281074,0.0014628749952,0.0014638749951999,0.0119687500032,0.400744501824,0.0105447524352,-0.003503375616,0.9161217491712,0.0014628749952,0.0014638749951999,0.0119687500032,2.158363,0.0,0.0,0.0247138239542857,0.0,0.0,0.06003836888064,0.0,0.0,0.0,-6.405015394981746
2023-09-08 15:39:07.400,-0.346715,0.3730544999999999,0.04696,0.095459,0.095438,0.0741365,48.359261,-4.557289,47.360904,50.787003,0.6235075,0.6225525000000001,0.605056,0.13008,-0.002997,-9.994816,-0.010989,0.075512,0.062197,33.676025,0.138523,-0.006107,-9.993276,-0.011284,0.076687,0.062501,-0.3321931200384,-0.3561470027008,0.8028878713344,0.1102613995392,0.0035941717056,-9.97478798464,0.1048512765089406,358.7985647993902,132.80015775542222,0.001464,0.001465,0.011968,0.400317,0.009974,-0.003359,0.916316,0.001464,0.001465,0.011968,2.158363,0.0,0.0,0.0241218571428571,0.0,0.0,0.0556132,0.0,0.0,0.0,-6.350978082370261
2023-09-08 15:39:07.440,-0.356926,0.381227,0.03402,0.096003,0.095981,0.074402,48.359261,-4.557289,47.359464,50.787003,0.625504,0.624541,0.606615,0.1263605,0.001571,-10.027855,-0.0111395,0.0838055,0.065266,33.6764335,0.134901,0.000127,-10.0377005,-0.011191,0.0845815,0.06543,-0.3290921200384,-0.3578350027008,0.8005968713344,0.1255983995392,-0.0062773282944,-9.96518798464,0.0753439500597032,359.0052306760939,132.95425475442266,0.001459,0.00146,0.0119639999999999,0.3990935,0.0082215,-0.0028645,0.916866,0.001459,0.00146,0.0119639999999999,2.158363,0.0,0.0,0.0225432857142857,0.0,0.0,0.0438128,0.0,0.0,0.0,-6.196881083369817
2023-09-08 15:39:07.465,-0.3608766148864,0.3819513731456,0.0243412747776,0.0941792546688,0.0941610046591999,0.0733545026816,48.359261,-4.557289,47.357870879078405,50.7876273734016,0.6075190460416,0.6066335458432,0.5905350411648,0.1240358184512,0.0044259926912,-10.0485043221376,-0.0112335622591999,0.0889889242304,0.0671841200896,33.676688811846404,0.1326372557952,0.0040232400256,-10.0654657414208,-0.0111328751488,0.0895155498688,0.0672606203136,-0.327154,-0.35889,0.799165,0.135184,-0.012447,-9.959188,0.0569019182406521,359.13439651836825,133.05056513224272,0.001455875008,0.001456875008,0.0119615000064,0.3983288144576,0.007126190304,-0.0025554382912,0.91720974912,0.001455875008,0.001456875008,0.0119615000064,2.158363,0.0,0.0,0.0215566810971428,0.0,0.0,0.03643756888064,0.0,0.0,0.0,-6.100570705549757
2023-09-08 15:39:07.480,-0.363247,0.382386,0.018534,0.093085,0.093069,0.072726,48.359261,-4.557289,47.356915,50.788002,0.596728,0.595889,0.580887,0.122641,0.006139,-10.060894,-0.01129,0.092099,0.068335,33.676842,0.131279,0.006361,-10.082125,-0.011098,0.092476,0.068359,-0.3202637206016,-0.3579978711936,0.792514346624,0.1218886932736,-0.0201825330048,-10.0638138214016,0.0458366236104658,359.21189655279755,133.10835175342308,0.001454,0.001455,0.01196,0.39787,0.006469,-0.00237,0.917416,0.001454,0.001455,0.01196,2.158363,0.0,0.0,0.0209647142857142,0.0,0.0,0.0320124,0.0,0.0,0.0,-6.042784084369401
2023-09-08 15:39:07.505,-0.367839175744,0.3853834923264,0.0086659002624,0.0934268741248,0.0934105616255999,0.072894749568,48.3592606875008,-4.557289,47.357018437235205,50.788002,0.5979095594752,0.5970658719872001,0.5818176226176001,0.1246759947904,0.0077914957696,-10.1032420165888,-0.0116099991808,0.0955514911616,0.0693824973184,33.676379501184,0.1272708852608,0.008620369216,-10.103412445504,-0.0118967479552,0.0960047409664,0.069565246912,-0.30878,-0.356511,0.78143,0.09973,-0.033075,-10.238189,0.0256041032652932,359.3535958147548,133.2091562574437,0.0014558749952,0.0014568749952,0.0119587500032,0.397066877056,0.00526587808,-0.002035625856,0.9177716240896,0.0014558749952,0.0014568749952,0.0119587500032,2.158363,0.0,0.0,0.0199781096685714,0.0,0.0,0.02463716888064,0.0,0.0,0.0,-5.941979580348772
2023-09-08 15:39:07.520,-0.3705945,0.387182,0.002745,0.0936319999999999,0.0936154999999999,0.072996,48.3592605,-4.557289,47.3570805,50.788002,0.5986184999999999,0.597772,0.582376,0.125897,0.008783,-10.128651,-0.011802,0.097623,0.070011,33.676102,0.124866,0.009976,-10.116185,-0.012376,0.098122,0.070289,-0.3105033198528,-0.3564419997056,0.7830938820992,0.1023426361472,-0.033625314848,-10.211449510912,0.0134645081855743,359.4386159523308,133.2696393727524,0.001457,0.001458,0.011958,0.396585,0.004544,-0.001835,0.917985,0.001457,0.001458,0.011958,2.158363,0.0,0.0,0.0193861428571428,0.0,0.0,0.020212,0.0,0.0,0.0,-5.8814964650400725
2023-09-08 15:39:07.560,-0.377942,0.391978,-0.013044,0.094179,0.094162,0.073266,48.35926,-4.557289,47.357246,50.788002,0.600509,0.599655,0.583865,0.1226855,0.0114464999999999,-10.143816,-0.0125495,0.1019325,0.0716255,33.676336500000005,0.1246195,0.0103285,-10.138948,-0.0129335,0.1021895,0.0718065,-0.3150988198528,-0.3562579997056,0.7875308820992,0.1093096361472,-0.035092814848,-10.140144510912,359.980347547627,359.6763361415306,133.43659927425352,0.00146,0.001461,0.011964,0.395251,0.002526,-0.001274,0.918569,0.00146,0.001461,0.011964,2.158363,0.0,0.0,0.0178075714285714,0.0,0.0,0.0084116,0.0,0.0,0.0,-5.714536563538957
2023-09-08 15:39:07.585,-0.3813785537024,0.3931426845184,-0.0237245976576,0.0938433758592,0.0938263758591999,0.073112875392,48.35926,-4.5572886875008,47.358655371392,50.788002,0.6005883747967999,0.5997334372992,0.5841343743103999,0.1206783176383999,0.0131111832384,-10.153294100736,-0.013016686304,0.1046259306048,0.0726345599168,33.6764830621248,0.1244654378944,0.010548811936,-10.1531748385792,-0.0132819366079999,0.104731680992,0.072754935072,-0.317971,-0.356143,0.790304,0.113664,-0.03601,-10.095579,359.9593630221009,359.8298168179897,133.54248876568835,0.0014618749952,0.0014628749952,0.0119633750016,0.3944028771712,0.0012241283328,-0.0009121259264,0.9189358740608,0.0014618749952,0.0014628749952,0.0119633750016,2.158363,0.0,0.0,0.0168209668114285,0.0,0.0,0.00103636888064,0.0,0.0,0.0,-5.608647072104134
2023-09-08 15:39:07.600,-0.3834404999999999,0.3938414999999999,-0.030133,0.093642,0.093625,0.073021,48.35926,-4.5572885,47.359501,50.788002,0.600636,0.5997805,0.5842959999999999,0.119474,0.01411,-10.158981,-0.013297,0.106242,0.07324,33.676571,0.124373,0.010681,-10.161711,-0.013491,0.106257,0.073324,-0.3250769053184,-0.3511554787199999,0.7924407591168,0.1243642956543999,0.0022990384511999,-10.1613475306112,359.9467722208324,359.92190585252365,133.6060228942737,0.001463,0.001464,0.011963,0.393894,0.000443,-0.000695,0.919156,0.001463,0.001464,0.011963,2.158363,0.0,0.0,0.016229,0.0,0.0,-0.0033887999999999,0.0,0.0,0.0,-5.545112943518774
2023-09-08 15:39:07.625,-0.3868770537024,0.3950061845183999,-0.0408135976575999,0.0933063758592,0.0932893758592,0.072867875392,48.35926,-4.5572881875008,47.360910371392,50.788002,0.6007153747968,0.5998589372992,0.5845653743104,0.12828647744,0.0232856015104,-10.1560572574848,-0.0139126234239999,0.1069176232704,0.0739481231872,33.676408500416,0.1332204773504,0.0234753422464,-10.1709334763904,-0.0138134991744,0.1070776228992,0.0738546236416,-0.33692,-0.342843,0.796002,0.142198,0.066147,-10.270961,359.9265397004872,135.07803949567312,133.71223467364325,0.001456750016,0.0014583750144,0.0119611250048,0.3930402521856,-0.0008738716287999,-0.0003243759487999,0.9195197490688,0.001456750016,0.0014583750144,0.0119611250048,2.158363,0.0,0.0,0.0152423953828571,0.0,0.0,-0.0107640311193599,0.0,0.0,0.0,-5.438901164149229
2023-09-08 15:39:07.640,-0.388939,0.395705,-0.047222,0.093105,0.093088,0.072776,48.35926,-4.557288,47.361756,50.788002,0.600763,0.599906,0.584727,0.133574,0.028791,-10.154303,-0.014282,0.107323,0.074373,33.676311,0.138529,0.031152,-10.176467,-0.014007,0.10757,0.074173,-0.3310575999871999,-0.3512726609664,0.792443234816,0.1421256246912,0.036441248256,-10.1702306952192,359.9144001054075,0.1707987187284984,133.77596217630952,0.001453,0.001455,0.01196,0.392528,-0.001664,-0.000102,0.919738,0.001453,0.001455,0.01196,2.158363,0.0,0.0,0.0146504285714285,0.0,0.0,-0.0151891999999999,0.0,0.0,0.0,-5.375173661482961
2023-09-08 15:39:07.665,-0.3901127469952,0.3964968729728,-0.0563238516992,0.0934474991232,0.0934304991232,0.072944749568,48.35926,-4.557288,47.3631534964224,50.788002,0.6019436219776,0.6010822469888,0.5856594976128,0.1294715105024,0.0161741572992,-10.1502392604032,-0.014713248896,0.1078986235264,0.0746629992576,33.676566624345604,0.1277096526976,0.0239838933504,-10.1471477000576,-0.0146126234496,0.107869999232,0.0747454985344,-0.321287,-0.365322,0.786512,0.142005,-0.013068,-10.002348,359.8921980476836,0.3270009377473347,133.88374958558202,0.0014548749952,0.0014568749952,0.0119593750016,0.3916598772224,-0.0029939965952,0.000251124096,0.9201042490624,0.0014548749952,0.0014568749952,0.0119593750016,2.158363,0.0,0.0,0.0136638239542857,0.0,0.0,-0.0225644311193599,0.0,0.0,0.0,-5.267386252210457
2023-09-08 15:39:07.680,-0.390817,0.396972,-0.061785,0.093653,0.093636,0.073046,48.35926,-4.557288,47.363992,50.788002,0.602652,0.601788,0.586219,0.12701,0.008604,-10.147801,-0.014972,0.108244,0.074837,33.67672,0.121218,0.019683,-10.129556,-0.014976,0.10805,0.075089,-0.3378579457024,-0.3610867319296,0.790968894016,0.1152445108223999,0.0231309044479999,-10.1054738150016,359.87887672210934,0.4207229089645635,133.9484224726439,0.001456,0.001458,0.011959,0.391139,-0.003792,0.000463,0.920324,0.001456,0.001458,0.011959,2.158363,0.0,0.0,0.0130718571428571,0.0,0.0,-0.0269895999999999,0.0,0.0,0.0,-5.202713365148583
2023-09-08 15:39:07.705,-0.3907366877056,0.397061062272,-0.07089435168,0.0939961241216,0.0939791241215999,0.0732141245696,48.35926,-4.557288,47.3658285577984,50.788002,0.6038529344256,0.6029842469376,0.5871618100864,0.1281331221248,0.0211595928576,-10.1536466100352,-0.0136576283648,0.106781503744,0.0753194987648,33.6769893743104,0.1263998617344,0.0171430065024,-10.1638959120896,-0.0134672538624,0.1067037534464,0.0755127489152,-0.365476,-0.354028,0.798397,0.070644,0.083462,-10.277349,359.86061373914293,0.5738454877184709,134.05409710545558,0.0014578749952,0.0014598749952,0.011959,0.3902852521856,-0.0050851216896,0.0008336240512,0.9206789990912,0.0014578749952,0.0014598749952,0.011959,2.158363,0.0,0.0,0.0120852525257142,0.0,0.0,-0.0343648311193599,0.0,0.0,0.0,-5.097038732336898
2023-09-08 15:39:07.720,-0.3906885,0.3971145,-0.07636,0.094202,0.0941849999999999,0.0733149999999999,48.35926,-4.557288,47.3669305,50.788002,0.6045735,0.603702,0.5877275,0.128807,0.028693,-10.157154,-0.012869,0.105904,0.075609,33.677151,0.129509,0.015619,-10.1845,-0.012562,0.105896,0.075767,-0.353800325184,-0.3580270170624,0.7913237198208,0.1085386616832,0.0316172787968,-10.2002970462464,359.8496558745577,0.6657196621625036,134.117502317987,0.001459,0.001461,0.011959,0.389773,-0.005861,0.001056,0.920892,0.001459,0.001461,0.011959,2.158363,0.0,0.0,0.0114932857142857,0.0,0.0,-0.0387899999999999,0.0,0.0,0.0,-5.033633519805477
2023-09-08 15:39:07.745,-0.3906081877056,0.397203562272,-0.08546935168,0.0945451241216,0.0945281241216,0.0734831245696,48.35926,-4.557288,47.3687670577984,50.788002,0.6057744344256,0.6048982469376001,0.5886703100864,0.1301807464832,0.0179686524544,-10.1439971586816,-0.011647128128,0.1038971301376,0.0757708745856,33.6771391250304,0.1320108685952,0.0154058755456,-10.1464632223744,-0.011977626496,0.1033160066048,0.075785749952,-0.334341,-0.364692,0.779535,0.171696,-0.05479,-10.071878,359.83321918988787,0.813005248321255,134.22607754221102,0.0014608749952,0.0014628749952,0.0119633749887999,0.3888942522496,-0.0071022468224,0.0014172490752,0.9212532490752,0.0014608749952,0.0014628749952,0.0119633749887999,2.158363,0.0,0.0,0.0105066810971428,0.0,0.0,-0.0461652311193599,0.0,0.0,0.0,-4.925058295581465
2023-09-08 15:39:07.760,-0.39056,0.397257,-0.090935,0.094751,0.094734,0.073584,48.35926,-4.557288,47.369869,50.788002,0.606495,0.605616,0.589236,0.131005,0.011534,-10.136103,-0.010914,0.102693,0.075868,33.677132,0.133512,0.015278,-10.123641,-0.011627,0.101768,0.075797,-0.3519199500032,-0.3592649768448,0.788630663808,0.148644651648,-0.0260045021824,-10.1465509436032,359.82335711176114,0.9013772032998112,134.2912231214707,0.001462,0.001464,0.011966,0.388367,-0.007847,0.001634,0.92147,0.001462,0.001464,0.011966,2.158363,0.0,0.0,0.0099147142857142,0.0,0.0,-0.0505903999999999,0.0,0.0,0.0,-4.859912716321787
2023-09-08 15:39:07.785,-0.3884200054784,0.3948995060352,-0.0987227925632,0.0943372510592,0.0943211885568,0.0733952504832,48.35926,-4.5572876875008,47.3727983675008,50.7876898132992,0.6064368751488,0.6055575626496,0.5894272495104,0.1248250158208,0.02319022016,-10.1424492337536,-0.0086790057216,0.0988017599616,0.0764154985984,33.6766026263552,0.1271576412672,0.0231861047552,-10.1228716269696,-0.0079951342976,0.0985630082048,0.0763976234624,-0.381218,-0.35022,0.80379,0.110226,0.021971,-10.271005,359.81565801109883,1.0413934060425094,134.3999773945473,0.0014638749951999,0.0014658749952,0.0119653750016,0.3874851272576,-0.0090013720448,0.0020377489663999,0.9218287490816,0.0014638749951999,0.0014658749952,0.0119653750016,2.158363,0.0,0.0,0.0089281096685714,0.0,0.0,-0.0579656311193599,0.0,0.0,0.0,-4.751158443245174
2023-09-08 15:39:07.800,-0.387136,0.393485,-0.1033955,0.094089,0.0940735,0.073282,48.35926,-4.557287499999999,47.374556,50.7875025,0.606402,0.6055225,0.589542,0.121117,0.030184,-10.146257,-0.007338,0.096467,0.076744,33.676285,0.123345,0.027931,-10.12241,-0.005816,0.09664,0.076758,-0.3795996805952,-0.347934365248,0.799867483264,0.1095502471168,0.021507873024,-10.2181830246272,359.81103851916583,1.125403701195963,134.4652304038519,0.001465,0.001467,0.011965,0.386956,-0.009694,0.00228,0.922044,0.001465,0.001467,0.011965,2.158363,0.0,0.0,0.0083361428571428,0.0,0.0,-0.0623907999999999,0.0,0.0,0.0,-4.685905433940576
2023-09-08 15:39:07.840,-0.383712,0.389713,-0.115856,0.093427,0.093413,0.07298,48.35926,-4.557287,47.379243,50.787003,0.606309,0.605429,0.589848,0.1236465,0.0326614999999999,-10.130201,-0.00184,0.086486,0.078067,33.674991500000004,0.1247004999999999,0.0290045,-10.118549,-0.000798,0.0862485,0.0780765,-0.3752841805952,-0.341839365248,0.789407483264,0.1077482471167999,0.020272873024,-10.0773250246272,359.80697051882044,1.3281734648927614,134.6461704755542,0.001454,0.001456,0.011962,0.38549,-0.011344,0.002914,0.922638,0.001454,0.001456,0.011962,2.158363,0.0,0.0,0.0067575714285714,0.0,0.0,-0.0741911999999999,0.0,0.0,0.0,-4.504965362238295
2023-09-08 15:39:07.865,-0.3813051311616,0.3873092561536,-0.1223628583423999,0.093767624128,0.093753624128,0.0731481245696,48.3592593750016,-4.557287,47.3819029931904,50.787003,0.6075033719424,0.6066183719552,0.5907898725888,0.1252274334528,0.034209933536,-10.1201660256896,0.0015962412031999,0.0802478909696,0.0788938728832,33.674183064569604,0.1255476853312,0.0296754357824,-10.1161358811776,0.0023382419712,0.0797538291264,0.0789005603904,-0.372587,-0.33803,0.78287,0.106622,0.019501,-9.989289,359.81452638040065,1.438431748331321,134.7577537205021,0.0014558749952,0.0014578749952,0.0119613750016,0.3845862523136,-0.012209622784,0.0033333739264,0.9230017490688,0.0014558749952,0.0014578749952,0.0119613750016,2.158363,0.0,0.0,0.0057709668114285,0.0,0.0,-0.0815664311193599,0.0,0.0,0.0,-4.393382117290372
2023-09-08 15:39:07.880,-0.379861,0.385867,-0.126267,0.093972,0.093958,0.073249,48.359259,-4.557287,47.383499,50.787003,0.60822,0.607332,0.591355,0.126176,0.035139,-10.114145,0.003658,0.076505,0.07939,33.673698,0.126056,0.030078,-10.114688,0.00422,0.075857,0.079395,-0.3690559849344,-0.3440236505728,0.7810328671615999,0.1216115639552,0.041249217792,-10.0659490770816,359.8190599282977,1.5045871700135418,134.82470412451698,0.001457,0.001459,0.011961,0.384044,-0.012729,0.003585,0.92322,0.001457,0.001459,0.011961,2.158363,0.0,0.0,0.005179,0.0,0.0,-0.0859916,0.0,0.0,0.0,-4.326431713275497
2023-09-08 15:39:07.905,-0.377305798208,0.382498258624,-0.1289492847999999,0.0943124157952,0.094298624128,0.0734164995712,48.359259,-4.557287,47.386501075648,50.787003,0.6094406218752,0.6085478302208,0.5923106225536,0.1305066139136,0.032585881536,-10.0979694164096,0.0067761170175999,0.0679562718848,0.0798187489024,33.6730092517632,0.1282678693375999,0.0302917494528,-10.0946205513728,0.0071887424,0.0669782727296,0.0798974987136,-0.363171,-0.354013,0.777971,0.146594,0.077496,-10.193715,359.8337777439824,1.5944338842543166,134.94058454192756,0.0014588749951999,0.0014608749952,0.0119603750016,0.3831065024,-0.0134077482624,0.00399124896,0.9235974990336,0.0014588749951999,0.0014608749952,0.0119603750016,2.158363,0.0,0.0,0.0041923953828571,0.0,0.0,-0.09336683111936,0.0,0.0,0.0,-4.210551295864917
2023-09-08 15:39:07.920,-0.3757726666666666,0.380477,-0.1305586666666666,0.0945166666666666,0.094503,0.073517,48.359259,-4.557287,47.388302333333336,50.787003,0.610173,0.6092773333333333,0.592884,0.133105,0.031054,-10.088264,0.008647,0.062827,0.080076,33.672596,0.129595,0.03042,-10.08258,0.00897,0.061651,0.080199,-0.3621052454528,-0.354628940128,0.7748449866624,0.1429272343552,0.077373186976,-10.1398130200192,359.8426084936776,1.6483422808118653,135.01011326702132,0.00146,0.001462,0.01196,0.382544,-0.013815,0.004235,0.923824,0.00146,0.001462,0.01196,2.158363,0.0,0.0,0.0036004285714285,0.0,0.0,-0.0977919999999999,0.0,0.0,0.0,-4.141022570771156
2023-09-08 15:39:07.985,-0.3691291315413333,0.371718258624,-0.1375326181333333,0.0954017491285333,0.095388624128,0.0739524995712,48.359259,-4.557287,47.39610774231466,50.787003,0.6133466218752001,0.6124384968874667,0.5953686225536,0.1441403641344,0.0354358081856,-10.0068142051968,0.0152306810176,0.0365052759168,0.0814645611328,33.672165375424,0.1446400476864,0.03119187424,-9.989902278752,0.0151181814464,0.0353894008576,0.0815063112128,-0.357487,-0.357298,0.761299,0.127038,0.076841,-9.906239,359.9037788400509,1.7929817527920329,135.31610465721303,0.0014640624959999,0.0014668749951999,0.0119648749952,0.3800748149312,-0.0147916240384,0.0051701865792,0.9248217490176,0.0014640624959999,0.0014668749951999,0.0119648749952,2.158363,0.0,0.0,0.0010352525257142,0.0,0.0,-0.1169676311193599,0.0,0.0,0.0,-3.835031180579449
2023-09-08 15:39:08.000,-0.367596,0.369697,-0.139142,0.095606,0.095593,0.074053,48.359259,-4.557287,47.397909,50.787003,0.614079,0.613168,0.595942,0.146687,0.036447,-9.988018,0.01675,0.030431,0.081785,33.672066,0.148112,0.03137,-9.968515,0.016537,0.029329,0.081808,-0.3607555139456,-0.3536852345856,0.7691721585919999,0.1212018500992,0.0617741857152,-9.942488529664,359.9178951479578,1.8263602677590125,135.38671842576082,0.001465,0.001468,0.011966,0.379505,-0.015017,0.005386,0.925052,0.001465,0.001468,0.011966,2.158363,0.0,0.0,0.0004432857142857,0.0,0.0,-0.1213928,0.0,0.0,0.0,-3.764417412031662
